Timestamp,Accel_X,Accel_Y,Accel_Z,Roll,Pitch,Yaw,UserAcc_X,UserAcc_Y,UserAcc_Z,RotRate_X,RotRate_Y,RotRate_Z,MagHeading,TrueHeading,HeadingAccuracy,MagX,MagY,MagZ
461775508.064222,0.000000,0.000000,0.000000,0.000000,0.000000,0.000000,0.000000,0.000000,0.000000,0.000000,0.000000,0.000000,0.000000,0.000000,0.000000,0.000000,0.000000,0.000000
461775508.098032,-0.224960,-0.692612,-0.842010,0.000000,0.000000,0.000000,0.000000,0.000000,0.000000,0.000000,0.000000,0.000000,0.000000,0.000000,0.000000,0.000000,0.000000,0.000000
461775508.131081,-0.210419,-0.698456,-1.218170,0.000000,0.000000,0.000000,0.000000,0.000000,0.000000,0.000000,0.000000,0.000000,0.000000,0.000000,0.000000,0.000000,0.000000,0.000000
461775508.164339,-0.005051,-0.486954,-1.040771,0.000000,0.000000,0.000000,0.000000,0.000000,0.000000,0.000000,0.000000,0.000000,0.000000,0.000000,0.000000,0.000000,0.000000,0.000000
461775508.197642,-0.073624,-0.488739,-0.564407,0.000000,0.000000,0.000000,0.000000,0.000000,0.000000,0.000000,0.000000,0.000000,0.000000,0.000000,0.000000,0.000000,0.000000,0.000000
461775508.231023,-0.137634,-0.516922,-0.555176,0.000000,0.000000,0.000000,0.000000,0.000000,0.000000,0.000000,0.000000,0.000000,0.000000,0.000000,0.000000,0.000000,0.000000,0.000000
461775508.264256,-0.103104,-0.517792,-0.815842,0.000000,0.000000,0.000000,0.000000,0.000000,0.000000,0.000000,0.000000,0.000000,0.000000,0.000000,0.000000,0.000000,0.000000,0.000000
461775508.297625,-0.214737,-0.672897,-0.990677,0.000000,0.000000,0.000000,0.000000,0.000000,0.000000,0.000000,0.000000,0.000000,0.000000,0.000000,0.000000,0.000000,0.000000,0.000000
461775508.330938,-0.173325,-0.676285,-1.147247,0.000000,0.000000,0.000000,0.000000,0.000000,0.000000,0.000000,0.000000,0.000000,0.000000,0.000000,0.000000,0.000000,0.000000,0.000000
461775508.364419,-0.014587,-0.477173,-0.984894,0.000000,0.000000,0.000000,0.000000,0.000000,0.000000,0.000000,0.000000,0.000000,0.000000,0.000000,0.000000,0.000000,0.000000,0.000000
461775508.397706,-0.123398,-0.491699,-0.577042,0.000000,0.000000,0.000000,0.000000,0.000000,0.000000,0.000000,0.000000,0.000000,0.000000,0.000000,0.000000,0.000000,0.000000,0.000000
461775508.431324,-0.212967,-0.512604,-0.656784,-0.240429,0.931603,0.121511,-0.037943,0.308025,-0.022143,-0.342105,-0.208535,0.060254,0.000000,0.000000,0.000000,0.000000,0.000000,0.000000
461775508.464424,-0.068832,-0.472870,-0.955093,-0.231495,0.913255,0.108980,0.004984,0.295968,-0.316782,-0.644407,0.160771,-0.206823,0.000000,0.000000,0.000000,0.000000,0.000000,0.000000
461775508.497742,0.012100,-0.446075,-0.802765,-0.209469,0.905980,0.093500,0.144044,0.370374,-0.288843,-0.038696,0.332326,-0.201462,0.000000,0.000000,0.000000,0.000000,0.000000,0.000000
461775508.530666,-0.070511,-0.513779,-0.815201,-0.201923,0.907978,0.088800,0.102306,0.307594,-0.184469,-0.053453,-0.059434,-0.039067,0.000000,0.000000,0.000000,0.000000,0.000000,0.000000
461775508.563662,-0.056305,-0.515594,-1.124619,-0.198027,0.899655,0.081490,0.015473,0.215806,-0.380248,-0.388175,0.018878,-0.133908,0.000000,0.000000,0.000000,0.000000,0.000000,0.000000
461775508.597734,0.118591,-0.304016,-0.904282,-0.185331,0.892176,0.070510,0.172510,0.359967,-0.557835,-0.009403,0.155797,-0.142137,0.000000,0.000000,0.000000,0.000000,0.000000,0.000000
461775508.631223,-0.027130,-0.383469,-0.470535,-0.182648,0.909612,0.074178,0.237799,0.498570,-0.143263,0.809453,0.141008,0.075334,0.000000,0.000000,0.000000,0.000000,0.000000,0.000000
461775508.664522,-0.151276,-0.454422,-0.620575,-0.203310,0.921803,0.092857,-0.029243,0.342271,-0.028638,-0.355351,-0.346904,0.105454,0.000000,0.000000,0.000000,0.000000,0.000000,0.000000
461775508.697733,-0.056976,-0.400970,-0.917770,-0.202660,0.907722,0.085373,0.004005,0.366778,-0.274710,-0.411941,0.045977,-0.135579,0.000000,0.000000,0.000000,0.000000,0.000000,0.000000
461775508.731043,-0.014481,-0.413666,-1.074356,-0.191023,0.898519,0.077561,0.110581,0.380138,-0.379694,-0.258621,0.206556,-0.043284,0.000000,0.000000,0.000000,0.000000,0.000000,0.000000
461775508.764398,0.022491,-0.410461,-1.166840,-0.186630,0.894835,0.075839,0.101607,0.366440,-0.459573,-0.226068,0.178286,-0.024453,0.000000,0.000000,0.000000,0.000000,0.000000,0.000000
461775508.797718,0.095291,-0.366272,-0.971542,-0.186039,0.901235,0.070489,0.221412,0.410818,-0.504111,0.642820,-0.245530,-0.055070,0.000000,0.000000,0.000000,0.000000,0.000000,0.000000
461775508.831074,-0.144165,-0.520737,-0.632904,-0.206164,0.928516,0.083286,0.086415,0.362744,-0.109570,0.818276,-0.360703,0.124323,0.000000,0.000000,0.000000,0.000000,0.000000,0.000000
461775508.864391,-0.193192,-0.610825,-0.748688,-0.223826,0.939565,0.091656,-0.050500,0.241429,-0.085104,-0.024054,-0.296154,0.009880,0.000000,0.000000,0.000000,0.000000,0.000000,0.000000
461775508.897721,-0.115311,-0.514084,-1.028152,-0.225732,0.934600,0.088689,-0.063355,0.177073,-0.307804,-0.433438,-0.244331,-0.053547,0.000000,0.000000,0.000000,0.000000,0.000000,0.000000
461775508.931078,-0.025635,-0.434769,-0.953278,-0.211374,0.924391,0.076549,0.081692,0.329687,-0.382368,-0.113888,0.165359,-0.051527,0.000000,0.000000,0.000000,0.000000,0.000000,0.000000
461775508.964353,-0.064819,-0.450409,-0.927383,-0.210520,0.923415,0.076389,0.084372,0.370557,-0.343305,0.005429,-0.080190,0.028694,0.000000,0.000000,0.000000,0.000000,0.000000,0.000000
461775508.998283,-0.042694,-0.429810,-0.849930,-0.216322,0.923728,0.076558,0.061814,0.346332,-0.342047,0.056631,-0.162853,-0.009131,0.000000,0.000000,0.000000,0.000000,0.000000,0.000000
461775509.031110,-0.100372,-0.462799,-0.725800,-0.221857,0.927499,0.079184,0.058060,0.343152,-0.198297,0.117740,-0.108918,0.029839,0.000000,0.000000,0.000000,0.000000,0.000000,0.000000
461775509.064389,-0.098419,-0.449387,-0.751801,-0.226148,0.926392,0.080306,0.031105,0.355763,-0.135964,-0.169153,-0.074444,0.037064,0.000000,0.000000,0.000000,0.000000,0.000000,0.000000
461775509.097748,-0.090469,-0.416595,-0.859772,-0.225224,0.916867,0.078231,0.028215,0.344038,-0.245997,-0.315365,0.020590,0.014259,0.000000,0.000000,0.000000,0.000000,0.000000,0.000000
461775509.130834,-0.072357,-0.394806,-1.056091,-0.221760,0.906678,0.076036,0.050729,0.389176,-0.274873,-0.334056,0.035487,0.029828,0.000000,0.000000,0.000000,0.000000,0.000000,0.000000
461775509.164344,-0.073074,-0.384232,-1.042114,-0.220147,0.898780,0.074625,0.062419,0.403600,-0.459370,-0.068425,0.041666,0.033017,0.000000,0.000000,0.000000,0.000000,0.000000,0.000000
461775509.197717,-0.100800,-0.467880,-0.858047,-0.221915,0.905766,0.077634,0.046509,0.358172,-0.351373,0.365682,-0.075935,-0.017394,0.000000,0.000000,0.000000,0.000000,0.000000,0.000000
461775509.231067,-0.166260,-0.564865,-0.791458,-0.229716,0.917930,0.081052,0.029357,0.301090,-0.222945,0.350894,-0.160583,-0.023984,0.000000,0.000000,0.000000,0.000000,0.000000,0.000000
461775509.264394,-0.148132,-0.540146,-0.784851,-0.232621,0.923212,0.079826,-0.027190,0.232678,-0.204445,0.019912,-0.050254,-0.095934,0.000000,0.000000,0.000000,0.000000,0.000000,0.000000
461775509.297764,-0.027863,-0.440430,-0.821869,-0.224528,0.920727,0.072491,0.012989,0.273291,-0.254311,-0.220028,0.113876,-0.128684,0.000000,0.000000,0.000000,0.000000,0.000000,0.000000
461775509.330979,-0.026367,-0.403214,-0.959595,-0.206438,0.910410,0.063284,0.110493,0.392432,-0.248266,-0.436769,0.187210,0.017475,0.000000,0.000000,0.000000,0.000000,0.000000,0.000000
461775509.363393,-0.023911,-0.386536,-1.113419,-0.198927,0.895754,0.059330,0.099587,0.394145,-0.500812,-0.339409,0.147484,0.014955,0.000000,0.000000,0.000000,0.000000,0.000000,0.000000
461775509.397685,0.013138,-0.463013,-1.145813,-0.193548,0.895503,0.057190,0.110533,0.325827,-0.598475,0.254212,0.017876,-0.079259,0.000000,0.000000,0.000000,0.000000,0.000000,0.000000
461775509.431007,-0.038666,-0.511749,-0.685806,-0.199798,0.917203,0.061765,0.145169,0.309544,-0.281937,0.797352,-0.151074,-0.003882,0.000000,0.000000,0.000000,0.000000,0.000000,0.000000
461775509.471977,-0.061874,-0.498535,-0.549316,-0.212196,0.935603,0.069166,0.056418,0.312678,0.020317,0.388331,-0.154088,0.004003,0.000000,0.000000,0.000000,0.000000,0.000000,0.000000
461775509.497718,-0.054230,-0.472961,-0.640732,-0.212838,0.936174,0.068230,0.064811,0.326871,-0.010638,-0.236932,0.008155,-0.019473,0.000000,0.000000,0.000000,0.000000,0.000000,0.000000
461775509.531052,-0.119644,-0.478500,-1.044357,-0.205623,0.923020,0.063560,0.019428,0.320636,-0.184245,-0.569019,0.181562,-0.002998,0.000000,0.000000,0.000000,0.000000,0.000000,0.000000
461775509.564374,0.015381,-0.429260,-1.303589,-0.191749,0.901592,0.054316,0.026552,0.321532,-0.576753,-0.569328,0.220472,-0.069270,0.000000,0.000000,0.000000,0.000000,0.000000,0.000000
461775509.597720,0.083496,-0.395020,-1.086700,-0.183360,0.902380,0.050535,0.155756,0.371825,-0.615956,0.407494,0.081063,-0.067735,0.000000,0.000000,0.000000,0.000000,0.000000,0.000000
461775509.631084,-0.069000,-0.480591,-0.599579,-0.191972,0.926709,0.059271,0.182819,0.422771,-0.164346,0.913645,-0.130131,0.106602,0.000000,0.000000,0.000000,0.000000,0.000000,0.000000
461775509.664548,-0.180618,-0.562424,-0.695679,-0.216935,0.943347,0.075175,-0.057278,0.274478,-0.093533,-0.024353,-0.148328,0.042274,0.000000,0.000000,0.000000,0.000000,0.000000,0.000000
461775509.697743,-0.141785,-0.535309,-0.780579,-0.210735,0.937459,0.070439,-0.017985,0.270748,-0.201834,-0.267434,0.194601,-0.086319,0.000000,0.000000,0.000000,0.000000,0.000000,0.000000
461775509.731093,-0.061874,-0.477203,-0.877182,-0.193181,0.927749,0.062565,0.044532,0.312617,-0.212345,-0.471170,0.391896,-0.083742,0.000000,0.000000,0.000000,0.000000,0.000000,0.000000
461775509.764360,0.048782,-0.424652,-1.117172,-0.183853,0.918885,0.057447,0.068239,0.323658,-0.381637,-0.589441,0.292979,-0.092200,0.000000,0.000000,0.000000,0.000000,0.000000,0.000000
461775509.797756,0.074509,-0.435577,-1.103638,-0.172021,0.911841,0.052051,0.179317,0.355055,-0.500384,0.301286,-0.110302,0.039421,0.000000,0.000000,0.000000,0.000000,0.000000,0.000000
461775509.831057,-0.075958,-0.487930,-0.612457,-0.187112,0.932395,0.064162,0.097029,0.361429,-0.107284,0.714530,-0.198904,0.113004,0.000000,0.000000,-1.000000,1.639654,-938803.875000,-1.268846
461775509.864427,-0.135117,-0.568069,-0.692841,-0.200601,0.940349,0.070316,-0.007384,0.251932,-0.062727,-0.063933,-0.219216,0.018195,359.563965,0.657985,-1.000000,5.602740,146.136642,29.283298
461775509.897824,-0.122238,-0.584442,-0.819092,-0.199536,0.937358,0.068030,-0.017789,0.237928,-0.112666,-0.261886,0.035202,-0.076135,0.015808,1.109828,-1.000000,5.120368,145.243851,28.354649
461775509.931113,0.017532,-0.504242,-1.161392,-0.174517,0.914661,0.046871,0.097229,0.262906,-0.466865,-0.569465,0.244734,-0.165976,0.236216,1.330235,-1.000000,5.120368,145.793259,28.022985
461775509.964429,0.106232,-0.398224,-1.085388,-0.160530,0.902351,0.037622,0.150502,0.340069,-0.616443,-0.147211,0.191972,-0.093767,0.175570,1.269590,-1.000000,5.051455,146.480011,28.487309
461775509.997746,0.122849,-0.357132,-0.906174,-0.155106,0.909945,0.036747,0.220584,0.404872,-0.389048,0.377258,0.042881,0.006890,0.175570,1.269590,-1.000000,5.051455,146.480011,28.487309
461775510.030545,-0.050476,-0.444031,-0.635925,-0.165736,0.924309,0.046103,0.107575,0.409197,-0.061507,0.431902,-0.144291,0.144645,359.598877,0.692897,-1.000000,5.740558,146.754715,28.553638
461775510.064182,-0.027634,-0.451920,-0.740997,-0.175728,0.926615,0.050805,0.032389,0.332520,-0.116072,-0.110931,-0.164566,0.027235,359.402374,0.496394,-1.000000,5.740561,146.411331,29.017963
461775510.097739,-0.053375,-0.488861,-0.778061,-0.175336,0.922583,0.051014,0.069233,0.318145,-0.154594,-0.142649,0.084786,0.041589,359.283875,0.377894,-1.000000,5.912839,146.651703,28.387808
461775510.131083,-0.036209,-0.469299,-0.972046,-0.171341,0.915195,0.049769,0.058520,0.305804,-0.262252,-0.271321,0.123198,0.002402,359.248535,0.342555,-1.000000,6.222934,146.342651,28.221979
461775510.164388,0.046936,-0.358368,-1.101501,-0.165432,0.904245,0.046503,0.084636,0.369531,-0.524379,-0.291147,0.064363,-0.000823,359.004517,0.098536,-1.000000,6.739761,146.308319,28.387806
461775510.197631,0.025574,-0.329956,-0.672836,-0.165077,0.909790,0.048544,0.169258,0.451591,-0.384821,0.522136,0.070801,0.054130,359.004517,0.098536,-1.000000,6.739761,146.308319,28.387806
461775510.231069,-0.085480,-0.432190,-0.606384,-0.177860,0.929136,0.061424,0.131467,0.471147,-0.083752,0.623170,-0.155823,0.176951,358.812531,359.906555,-1.000000,6.705304,145.999283,28.155643
461775510.264409,-0.176422,-0.601562,-0.986374,-0.194461,0.934576,0.071959,-0.034325,0.324962,-0.079789,-0.143634,-0.333166,0.102096,358.873871,359.967896,-1.000000,6.291846,145.655914,28.221975
461775510.297723,-0.033997,-0.559677,-0.979187,-0.197222,0.924181,0.067577,-0.038882,0.183152,-0.486736,-0.308404,-0.013183,-0.093896,359.138794,0.232814,-1.000000,5.878385,145.518570,28.155645
461775510.330587,0.003448,-0.515610,-0.894119,-0.186354,0.923267,0.060045,0.077766,0.237899,-0.386413,0.026483,0.202391,-0.117885,359.661285,0.755305,-1.000000,5.775018,145.484238,28.918467
461775510.364392,0.056824,-0.392319,-0.954132,-0.173030,0.917960,0.051858,0.150984,0.372062,-0.349535,-0.217405,0.110596,-0.071013,359.489288,0.583308,-1.000000,5.947290,145.655930,29.084295
461775510.397656,0.035599,-0.379807,-0.806168,-0.169954,0.916771,0.050453,0.165675,0.435411,-0.315205,0.121097,0.021243,0.027627,359.489288,0.583308,-1.000000,5.947290,145.655930,29.084295
461775510.431055,-0.055420,-0.437454,-0.763184,-0.176055,0.923498,0.055836,0.097578,0.404177,-0.167412,0.171402,-0.107649,0.063457,359.224579,0.318599,-1.000000,6.326297,146.239685,29.250128
461775510.464419,0.002029,-0.488922,-1.070267,-0.177831,0.918963,0.052347,0.016370,0.271459,-0.395293,-0.213309,-0.115528,-0.124849,358.679596,359.773621,-1.000000,6.946494,146.308380,29.714453
461775510.497713,0.017105,-0.503998,-0.628662,-0.174656,0.927103,0.049787,0.170039,0.342151,-0.223689,0.493743,0.040094,-0.031934,358.424866,359.518890,-1.000000,7.222135,145.896317,29.449127
461775510.531046,-0.066284,-0.578674,-0.629471,-0.183858,0.940182,0.055405,0.078366,0.275714,-0.018884,0.195353,-0.231767,0.052677,358.529205,359.623230,-1.000000,7.118768,145.106537,28.951633
461775510.564390,-0.103577,-0.510223,-1.085052,-0.188262,0.928695,0.053827,-0.022516,0.202039,-0.292806,-0.626947,-0.038061,0.010552,358.400391,359.494415,-1.000000,7.256592,145.243881,29.084295
461775510.597762,0.105484,-0.306030,-0.751617,-0.175114,0.914126,0.046355,0.146962,0.412390,-0.441181,-0.165423,0.376814,-0.043736,358.609100,359.703125,-1.000000,7.359958,145.964966,29.979778
461775510.631228,0.054047,-0.326721,-0.575165,-0.169187,0.921986,0.052904,0.184521,0.497197,-0.055206,0.419330,0.192425,0.160216,358.609100,359.703125,-1.000000,7.359958,145.964966,29.979778
461775510.664417,-0.170761,-0.498001,-0.715240,-0.182795,0.928164,0.066107,0.021295,0.391891,0.042033,-0.067061,-0.286278,0.191769,358.410126,359.504150,-1.000000,7.842331,145.690231,30.178776
461775510.697746,-0.083618,-0.521500,-1.256943,-0.187424,0.899057,0.058286,-0.022695,0.242518,-0.534700,-0.809691,0.083636,-0.104299,358.016327,359.110352,-1.000000,7.738965,145.312531,30.477270
461775510.731047,0.028671,-0.473892,-1.348526,-0.168092,0.884332,0.048373,0.134708,0.299599,-0.723652,-0.209320,0.430814,-0.079989,358.232605,359.326630,-1.000000,7.566687,145.415543,30.709433
461775510.764422,0.132645,-0.272141,-1.048676,-0.164567,0.892878,0.058242,0.234919,0.475199,-0.527617,0.696837,0.303136,0.436961,358.605042,359.699066,-1.000000,7.222137,146.033600,31.372757
461775510.797775,-0.031708,-0.338196,-0.625381,-0.176533,0.916895,0.079991,0.137435,0.466110,-0.047971,0.664745,-0.150794,0.213094,358.325623,359.419647,-1.000000,6.946494,146.239639,31.107428
461775510.831182,-0.116333,-0.434540,-0.606567,-0.198589,0.929710,0.094040,0.001657,0.366906,-0.020255,0.249707,-0.367797,0.134002,358.325623,359.419647,-1.000000,6.946494,146.239639,31.107428
461775510.864415,-0.135559,-0.556671,-0.818237,-0.209357,0.926992,0.094204,-0.019142,0.261778,-0.174826,-0.222681,-0.223134,-0.060154,358.062317,359.156342,-1.000000,6.946494,145.758911,30.444107
461775510.897755,0.047287,-0.540237,-0.996353,-0.206697,0.923381,0.089511,-0.002549,0.213447,-0.264356,-0.280941,0.017126,-0.159375,358.607666,359.701691,-1.000000,6.429666,145.861923,29.946613
461775510.931087,0.178513,-0.332443,-0.875381,-0.180880,0.909094,0.069916,0.271763,0.356818,-0.372920,-0.135530,0.289146,-0.117053,358.948151,0.042171,-1.000000,6.257391,146.102280,29.316456
461775510.964485,0.091309,-0.289627,-0.710510,-0.181452,0.913388,0.075991,0.258435,0.484480,-0.193383,0.370129,-0.031670,0.208436,358.925293,0.019313,-1.000000,6.567487,146.548676,29.150625
461775510.997746,-0.147705,-0.407547,-0.623535,-0.203152,0.924978,0.094197,0.096770,0.454781,-0.013094,0.321072,-0.290029,0.275297,358.602661,359.696686,-1.000000,6.360754,146.892059,29.150625
461775511.030248,-0.176620,-0.593491,-1.171936,-0.218170,0.922280,0.100767,-0.059865,0.329467,-0.115986,-0.349535,-0.302050,-0.009095,358.602661,359.696686,-1.000000,6.360754,146.892059,29.150625
461775511.064051,-0.074585,-0.586639,-1.424881,-0.213172,0.902925,0.087348,-0.007313,0.185227,-0.725009,-0.621450,-0.024524,-0.203042,358.574463,359.668488,-1.000000,6.188479,146.376984,28.918463
461775511.097658,0.111099,-0.380936,-0.956650,-0.200759,0.900467,0.074929,0.182264,0.282564,-0.701277,0.293581,0.178952,-0.163916,358.851318,359.945343,-1.000000,6.360757,145.930573,28.752634
461775511.130146,-0.014420,-0.401443,-0.693680,-0.196299,0.917591,0.078109,0.223987,0.437359,-0.225760,0.541232,0.164250,0.045529,359.044067,0.138087,-1.000000,6.498575,145.861908,29.084295
461775511.164371,-0.106537,-0.451996,-0.861740,-0.206529,0.923686,0.086194,0.109210,0.396386,-0.103609,-0.059834,-0.273175,0.124596,359.004150,0.098170,-1.000000,6.360754,145.861908,29.415958
461775511.197767,-0.098938,-0.524017,-0.979523,-0.216894,0.916855,0.087984,-0.004360,0.270362,-0.422703,-0.160029,-0.230308,0.025801,358.833221,359.927246,-1.000000,6.360757,145.861908,29.084299
461775511.231074,-0.026901,-0.459702,-0.666473,-0.220428,0.921971,0.088392,0.063377,0.279750,-0.296386,0.359248,-0.003556,-0.045691,359.156189,0.250209,-1.000000,6.291849,145.655884,28.354645
461775511.264335,0.046860,-0.493912,-0.630493,-0.222878,0.932412,0.090761,0.104814,0.343358,-0.085314,0.253154,-0.009383,-0.076945,359.156189,0.250209,-1.000000,6.291849,145.655884,28.354645
461775511.297301,0.033875,-0.376694,-0.781387,-0.222277,0.932504,0.087309,0.166278,0.357237,-0.091044,-0.170557,-0.016799,0.011393,359.443359,0.537379,-1.000000,5.912839,145.209503,27.923483
461775511.330986,0.115509,-0.379593,-1.097870,-0.226464,0.913378,0.085311,0.129379,0.400581,-0.351015,-0.548205,-0.413572,0.101879,359.451782,0.545802,-1.000000,6.016202,145.243820,28.221975
461775511.364382,-0.391663,-0.194016,-1.114044,-0.233609,0.910729,0.090955,-0.249720,0.595936,-0.517530,0.590952,0.416175,-0.277111,359.385437,0.479457,-1.000000,6.257385,144.934784,28.984797
461775511.397733,-0.187027,-0.596176,-0.995850,-0.191314,0.942785,0.061394,-0.112798,0.207864,-0.561855,0.764445,0.467993,-0.974083,359.357208,0.451228,-1.000000,6.636395,144.900467,29.216961
461775511.431070,-0.008575,-0.694550,-0.501343,-0.144264,0.970067,-0.002678,-0.006553,0.169070,-0.080139,0.464216,-0.190487,-1.346805,359.635071,0.729091,-1.000000,5.809473,144.557098,28.951633
461775511.464402,0.021118,-0.560455,-0.612350,-0.080306,0.963847,-0.071539,0.056542,0.179775,0.081451,-0.961596,0.377213,-1.049811,359.390594,0.484614,-1.000000,5.154825,144.660126,28.056147
461775511.497704,0.016159,-0.530685,-1.059174,-0.037183,0.919141,-0.128846,-0.097433,0.244178,-0.577296,-1.387865,0.012021,-0.857885,359.390594,0.484614,-1.000000,5.154825,144.660126,28.056147
461775511.531101,0.242310,-0.248444,-1.134354,0.068691,0.895530,-0.166178,0.343722,0.434258,-0.382305,-0.523139,3.837969,-0.248883,359.078979,0.172999,-1.000000,5.154825,145.484222,28.321476
461775511.564386,0.281372,-0.214005,-1.030197,0.147656,0.886720,-0.122828,0.128126,0.530359,-0.457454,-0.288533,2.509734,1.469347,358.310516,359.404541,-1.000000,7.153229,146.514359,28.918467
461775511.597799,0.564758,-0.119461,-0.795609,0.097734,0.888808,0.004614,0.324739,0.658157,-0.333425,-0.290764,1.144858,3.227573,354.170990,355.265015,-1.000000,10.839938,146.823395,30.145611
461775511.631546,0.293854,-0.557999,-0.513992,0.029375,0.906899,0.149475,0.444320,0.382812,-0.160030,1.124773,1.557763,2.031323,354.170990,355.265015,-1.000000,10.839938,146.823395,30.145611
461775511.664335,0.111938,-0.319977,-0.854385,-0.010303,0.936461,0.229305,0.196902,0.342057,0.037786,0.443531,0.549654,1.592071,318.011688,319.105713,25.000000,22.556046,9.394318,-23.716265
461775511.697806,0.176834,-0.388489,-0.676926,-0.126357,0.948465,0.396120,0.250295,0.424033,-0.098642,0.755592,0.360674,2.301517,316.399445,317.493469,25.000000,23.451883,8.364182,-24.379585
461775511.731161,-0.167191,-0.275238,-0.636993,-0.202976,0.948924,0.515202,0.170505,0.363723,-0.115803,-0.036834,0.877579,2.137807,312.008087,313.102112,25.000000,25.278009,6.475571,-24.346420
461775511.764422,0.153778,-0.406372,-0.765213,-0.298696,0.910477,0.608748,0.246737,0.533693,-0.110583,-1.080523,-0.312922,1.708582,307.553711,308.647736,25.000000,26.828495,5.411072,-24.246923
461775511.797857,0.221130,-0.378326,-0.886078,-0.329936,0.881899,0.642197,0.359729,0.365575,-0.163813,-1.384019,-0.384129,1.900957,305.322601,306.416626,25.000000,27.483143,5.033356,-23.749432
461775511.831077,-0.140732,-0.537491,-0.992416,-0.459272,0.769057,0.769842,0.129298,0.249428,-0.353209,-1.206980,-1.367263,2.699026,300.761078,301.855103,25.000000,28.206705,4.999023,-22.986610
461775511.864405,-0.605133,-0.483749,-1.174728,-0.550345,0.683170,0.853645,0.149187,0.208297,-0.284744,-1.622247,-0.764091,3.137594,296.514130,297.608154,25.000000,29.033630,4.106247,-22.190624
461775511.897697,-0.382217,-0.626633,-1.286591,-0.590016,0.594391,0.891579,-0.053439,-0.031167,-0.517270,-1.457207,-0.702245,1.792546,293.800476,294.894501,25.000000,29.516005,4.106247,-21.792633
461775511.931146,0.138474,-0.248932,-0.919891,-0.590149,0.546547,0.947312,0.408600,0.096797,-0.125535,0.265205,3.104091,2.666944,286.748383,287.842407,25.000000,31.376585,3.007431,-20.399658
461775511.964470,-0.208359,-0.129410,-1.012451,-0.504470,0.518056,1.077341,0.498931,0.628814,-0.580276,0.918263,3.951408,3.526052,280.286041,281.380066,25.000000,35.132206,1.256180,-18.310196
461775511.997753,-0.046585,-0.545410,-1.074509,-0.501082,0.478349,1.120350,0.278064,0.007997,-0.250266,-0.007134,0.666310,0.782245,277.260498,278.354523,25.000000,36.751602,-0.083008,-17.016716
461775512.031019,-0.145142,-0.367493,-0.745621,-0.496198,0.481427,1.130781,0.182698,0.144670,-0.047050,0.083569,0.011489,-0.168260,271.474548,272.568573,25.000000,39.197926,-1.628220,-15.391575
461775512.064415,0.135330,-0.330994,-0.785049,-0.484516,0.487362,1.116765,0.435079,0.068348,0.168836,-0.322470,0.015817,-0.386131,270.007874,271.101898,25.000000,39.197926,-1.902924,-14.927250
461775512.097720,0.323624,-0.526825,-0.834641,-0.508043,0.456227,1.092638,0.892218,-0.083118,-0.023081,-1.810461,-2.185409,0.257626,270.734344,271.828369,25.000000,38.508820,-1.147491,-15.524239
461775512.131047,-0.000946,-0.200729,-0.938736,-0.526976,0.393452,1.078079,0.281160,-0.115003,-0.021352,-1.397330,1.624255,0.432668,271.242920,272.336945,25.000000,38.474365,-0.701096,-15.358410
461775512.164376,-0.092056,-0.160767,-0.928329,-0.468036,0.373669,1.065160,0.463445,0.306226,-0.142929,-0.972981,1.370686,-0.027613,271.078857,272.172882,25.000000,39.060104,0.226028,-15.325245
461775512.197718,-0.121170,-0.221161,-1.000290,-0.440908,0.340409,1.054648,0.328618,0.076762,-0.229622,-0.819693,0.664310,0.192882,270.075745,271.169769,25.000000,40.197124,0.397720,-13.766441
461775512.231103,-0.005920,-0.111740,-1.041290,-0.433735,0.314155,1.046762,0.352194,0.114387,0.031785,-1.117790,0.019621,0.099426,269.650360,270.744385,25.000000,40.886230,0.260361,-13.235783
461775512.264396,0.098206,-0.153503,-1.395981,-0.422821,0.270475,1.028795,0.502716,0.228600,-0.366870,-1.450135,0.271447,0.093157,269.402069,270.496094,25.000000,41.471966,0.844116,-12.406631
461775512.298008,-0.030029,-0.106552,-1.347931,-0.423195,0.241588,1.020248,0.496955,0.085742,-0.510678,-0.495522,0.048757,0.107552,269.011108,270.105133,25.000000,42.126617,1.015808,-12.439796
461775512.331040,-0.044098,0.109482,-0.882446,-0.422670,0.235639,1.020105,0.430325,0.174398,-0.025101,-0.023563,0.206471,-0.030699,269.158386,270.252411,25.000000,42.126617,1.359192,-12.240803
461775512.364390,-0.071625,-0.058853,-1.018661,-0.406599,0.231337,1.016587,0.338322,0.211868,-0.131219,-0.141598,0.548174,-0.031346,268.611786,269.705811,25.000000,42.161076,0.844116,-11.610645
461775512.397710,0.088791,-0.084534,-1.072906,-0.385667,0.233051,1.016338,0.341807,0.056951,-0.131734,0.129747,0.772764,-0.030290,268.927399,270.021423,25.000000,41.885433,1.118820,-10.748325
461775512.431008,0.064880,-0.153534,-1.110779,-0.369829,0.245736,1.020484,0.457745,0.115386,-0.186167,0.694893,0.168909,-0.021173,269.085815,270.179840,25.000000,42.195530,1.290512,-10.250835
461775512.464384,0.167542,-0.124817,-1.009720,-0.381479,0.276095,1.028033,0.517862,0.194506,-0.062983,0.908225,-0.545681,-0.130765,269.393158,270.487183,25.000000,42.367805,1.393539,-10.085007
461775512.497709,0.109573,-0.135330,-0.937439,-0.397427,0.301965,1.035782,0.475813,0.192935,-0.260712,1.044408,-0.555742,-0.062522,269.882568,270.976593,25.000000,42.092163,1.324860,-10.814659
461775512.531019,-0.009628,-0.146530,-0.634933,-0.434486,0.341663,1.054420,0.488029,0.088061,0.114040,1.343887,-0.903406,0.120136,270.113037,271.207062,25.000000,41.196327,0.775436,-12.074970
461775512.564401,-0.015503,-0.213165,-0.809723,-0.456123,0.359550,1.069752,0.308972,0.332688,0.352185,0.039007,-0.204109,0.120275,270.259369,271.353394,25.000000,40.920685,0.432053,-12.406628
461775512.597378,0.054565,-0.207352,-1.237503,-0.451961,0.349186,1.066058,0.386357,0.141922,-0.107745,-0.404755,0.164565,0.069289,270.195465,271.289490,25.000000,41.024052,-0.151688,-13.302113
461775512.630229,0.089645,-0.158508,-1.250229,-0.445443,0.341892,1.064375,0.460761,0.137882,-0.418151,-0.002973,0.044815,0.047933,270.474762,271.568787,25.000000,41.230778,0.191696,-12.837788
461775512.664868,0.103638,-0.093369,-0.918442,-0.455005,0.351336,1.068630,0.508630,0.127584,-0.067104,0.076204,-0.298275,-0.012704,270.414886,271.508911,25.000000,41.265236,0.088669,-13.136280
461775512.697739,-0.087021,-0.220520,-0.958374,-0.462969,0.350179,1.068940,0.356728,0.116991,-0.117043,-0.038302,-0.328173,0.035520,270.907959,272.001984,25.000000,41.092960,0.535080,-13.103115
461775512.731093,-0.120773,-0.189423,-0.909683,-0.469416,0.348074,1.068045,0.304465,0.151665,-0.071333,-0.045211,-0.137064,-0.032319,271.626160,272.720184,25.000000,40.955143,0.741104,-13.832767
461775512.764402,-0.102112,-0.207672,-1.038101,-0.468487,0.343236,1.065667,0.335035,0.154575,-0.134508,-0.216391,0.094800,0.034825,271.797485,272.891510,25.000000,41.127415,0.844116,-13.932266
461775512.797756,0.010117,-0.189941,-0.983795,-0.461305,0.340380,1.063899,0.379175,0.136915,-0.293934,0.022498,0.256649,-0.018643,271.904022,272.998047,25.000000,41.024052,0.603745,-13.766438
461775512.831086,0.040070,-0.221268,-1.007553,-0.455577,0.340996,1.063719,0.454717,0.113158,-0.161251,-0.040787,0.139191,-0.005756,271.831207,272.925232,25.000000,40.886230,0.466400,-13.633774
461775512.864333,0.126404,-0.166397,-1.082748,-0.451541,0.340758,1.062510,0.491433,0.142399,-0.223722,0.002948,0.051659,-0.042370,271.952087,273.046112,25.000000,40.300491,0.569412,-13.467945
461775512.896733,0.010483,-0.176926,-0.891754,-0.453080,0.343547,1.062038,0.526553,0.168280,-0.162133,0.110629,-0.139082,-0.048187,271.699585,272.793610,25.000000,40.610588,0.329041,-13.103119
461775512.930573,-0.016449,-0.180374,-0.834656,-0.458939,0.346317,1.061824,0.409265,0.186070,-0.004299,0.009737,-0.175378,-0.036396,271.720459,272.814484,25.000000,40.748409,0.260361,-12.837788
461775512.964263,-0.072311,-0.152374,-0.979736,-0.462065,0.343494,1.061281,0.311083,0.149523,-0.087851,-0.136187,-0.052759,0.047890,272.050659,273.144684,25.000000,40.886230,0.466400,-12.904121
461775512.997778,-0.022995,-0.141159,-0.871719,-0.461408,0.342375,1.062081,0.364941,0.211015,-0.091282,0.065566,0.049352,0.036214,272.608704,273.702728,25.000000,40.782864,0.706772,-13.467945
461775513.031045,0.006958,-0.192581,-1.003250,-0.459464,0.342135,1.064107,0.410868,0.167896,-0.061267,-0.072883,0.116481,0.078408,272.291138,273.385162,25.000000,40.645042,0.363388,-13.534275
461775513.064331,0.055008,-0.186310,-1.185516,-0.459456,0.339760,1.065778,0.472507,0.118875,-0.329488,0.034810,-0.116131,0.046169,271.905396,272.999420,25.000000,40.748409,-0.014328,-13.368443
461775513.097722,-0.038605,-0.170715,-0.856354,-0.466795,0.342205,1.066727,0.464780,0.188638,-0.218121,0.064844,-0.256550,-0.022964,271.717072,272.811096,25.000000,40.231583,-0.254700,-13.335281
461775513.131004,-0.150009,-0.155502,-0.881042,-0.475650,0.343512,1.066781,0.320812,0.137272,0.029151,-0.046019,-0.261988,0.012844,272.201263,273.295288,25.000000,40.472767,-0.014343,-13.567448
461775513.164372,-0.125961,-0.188156,-0.996094,-0.479086,0.340108,1.066145,0.284554,0.178087,-0.044458,-0.091513,0.027989,0.038888,272.500580,273.594604,25.000000,40.610588,0.397720,-13.700108
461775513.197715,0.018661,-0.195450,-1.102081,-0.473417,0.335843,1.065858,0.344094,0.128668,-0.254555,-0.069715,0.290466,0.029119,272.697449,273.791473,25.000000,40.851776,0.638092,-13.733273
461775513.231044,0.080200,-0.172699,-0.917618,-0.465614,0.339269,1.066376,0.471536,0.111561,-0.239816,0.122341,0.167621,-0.058471,274.386444,275.480469,25.000000,40.266037,0.947128,-13.766438
461775513.264396,0.003143,-0.178421,-0.893570,-0.465271,0.344490,1.065914,0.502505,0.165018,-0.076425,0.117974,-0.133177,-0.084788,275.115845,276.209869,25.000000,40.128216,1.221848,-13.899097
461775513.297975,-0.140228,-0.188904,-0.880875,-0.471920,0.343458,1.064646,0.403862,0.171005,-0.142281,-0.057387,-0.214123,0.003741,275.337494,276.431519,25.000000,39.921482,1.359192,-13.766438
461775513.331062,-0.077850,-0.163452,-0.964417,-0.478342,0.342381,1.064606,0.320004,0.172675,-0.150264,-0.059066,0.039915,0.024385,275.592377,276.686401,25.000000,39.783665,1.565231,-13.434776
461775513.364392,-0.039688,-0.189545,-1.019836,-0.474517,0.341213,1.065252,0.368373,0.149206,-0.117090,-0.075524,0.164020,0.038883,274.537354,275.631378,25.000000,39.955940,0.775436,-13.202614
461775513.397781,0.081482,-0.150848,-1.011032,-0.469271,0.339855,1.065878,0.513406,0.190787,-0.229230,0.060431,0.130170,0.020739,274.433594,275.527618,25.000000,40.334949,0.741104,-13.368443
461775513.431133,0.076141,-0.166611,-0.879532,-0.468462,0.341145,1.066363,0.512592,0.165850,-0.128882,0.021987,-0.028229,-0.026777,273.960480,275.054504,25.000000,40.645046,0.294708,-13.932266
461775513.464316,-0.025162,-0.177261,-0.892227,-0.473594,0.342448,1.066160,0.451364,0.150216,0.000401,-0.034841,-0.232825,-0.009312,274.324860,275.418884,25.000000,40.817322,0.672424,-13.766434
461775513.496947,-0.130035,-0.209366,-0.924164,-0.480690,0.342134,1.065227,0.370833,0.156741,-0.125301,0.032464,-0.239356,-0.025813,274.157501,275.251526,25.000000,40.162674,0.432053,-13.666935
461775513.531030,-0.097702,-0.267120,-1.080795,-0.484466,0.341497,1.064479,0.306869,0.065748,-0.197030,-0.057753,-0.010490,0.009038,274.051483,275.145508,25.000000,40.197128,0.397720,-13.633770
461775513.564387,-0.036560,-0.278152,-1.164856,-0.482403,0.341105,1.064894,0.363024,0.059611,-0.279110,-0.008095,0.108416,0.025314,274.646973,275.740997,25.000000,39.542480,0.844116,-14.064930
461775513.597719,0.016846,-0.206299,-0.892395,-0.479946,0.343601,1.066368,0.453282,0.133693,-0.239017,0.187635,0.045813,-0.039668,275.000305,276.094330,25.000000,39.990395,1.221848,-13.832767
461775513.631445,0.017044,-0.131897,-0.800476,-0.479077,0.345681,1.066025,0.479606,0.150757,-0.053594,-0.012996,0.012486,-0.016468,275.391357,276.485382,25.000000,39.714756,1.496552,-13.766438
461775513.664569,-0.031860,-0.124146,-0.841553,-0.482477,0.344670,1.064553,0.404826,0.213740,-0.007803,-0.067663,-0.069469,-0.012409,275.175140,276.269165,25.000000,39.990395,1.153168,-13.965435
461775513.697664,-0.068939,-0.166321,-1.137619,-0.483221,0.343590,1.063952,0.366340,0.195161,-0.091760,-0.087547,-0.056941,0.017815,275.252655,276.346680,25.000000,39.818119,1.187500,-14.197598
461775513.731080,-0.062439,-0.245117,-1.193817,-0.484008,0.339925,1.064610,0.351851,0.094952,-0.398467,0.093206,-0.017235,0.022461,275.073975,276.167999,25.000000,39.714756,1.084488,-14.031769
461775513.764388,0.027405,-0.232346,-1.127701,-0.485119,0.341593,1.066340,0.466776,0.102643,-0.294193,0.131841,-0.011292,0.019037,274.653748,275.747772,25.000000,39.370201,0.809784,-13.899101
461775513.797759,0.015350,-0.161575,-0.881073,-0.486030,0.342232,1.067163,0.444135,0.150135,-0.004286,-0.122652,0.011905,0.010761,275.089233,276.183258,25.000000,39.370201,1.221848,-14.031765
461775513.831105,0.001450,-0.092300,-0.841049,-0.485065,0.340253,1.066138,0.473913,0.200578,-0.107783,-0.114052,0.051076,-0.000543,275.317596,276.411621,25.000000,39.266834,1.324860,-14.197594
461775513.864344,-0.061386,-0.127228,-0.940643,-0.483921,0.338239,1.063327,0.405323,0.197412,-0.061079,-0.074176,0.008953,-0.040080,275.376770,276.470795,25.000000,39.576931,1.359192,-14.230762
461775513.897748,-0.070557,-0.187714,-1.058594,-0.484960,0.337474,1.061494,0.365812,0.174778,-0.171388,-0.043974,-0.075743,-0.018264,274.888000,275.982025,25.000000,40.024849,0.981476,-14.197594
461775513.930201,-0.089966,-0.209106,-1.098038,-0.488817,0.338925,1.062540,0.319867,0.123626,-0.159951,0.031060,-0.120091,0.013252,274.876038,275.970062,25.000000,40.472767,0.809784,-14.031765
461775513.964405,-0.005829,-0.196259,-0.915451,-0.489924,0.338077,1.062785,0.353956,0.122567,-0.265616,-0.053859,-0.023797,0.047025,274.874634,275.968658,25.000000,40.334949,1.084488,-13.899101
461775513.997763,0.054291,-0.143753,-0.901886,-0.490936,0.340690,1.065617,0.476581,0.170578,-0.076220,-0.003045,0.027190,-0.012876,274.842041,275.936066,25.000000,39.852573,0.672424,-13.832767
461775514.031078,-0.033707,-0.151215,-0.926239,-0.489857,0.340452,1.064901,0.450713,0.180562,-0.007129,-0.072811,-0.000709,-0.010691,274.550842,275.644867,25.000000,39.611385,0.706772,-14.064930
461775514.064385,-0.083252,-0.197861,-1.134109,-0.490299,0.339133,1.063473,0.362313,0.176282,-0.104471,-0.012851,-0.088293,-0.043521,273.897491,274.991516,25.000000,39.990391,0.260361,-13.899097
461775514.097716,-0.080643,-0.264771,-1.228683,-0.490988,0.338068,1.062585,0.370896,0.093399,-0.392475,0.009494,0.037105,0.015182,274.272369,275.366394,25.000000,40.300491,0.638092,-13.799599
461775514.131548,0.022049,-0.263382,-1.141693,-0.490324,0.341497,1.065022,0.407692,0.068739,-0.357147,0.107984,0.051390,0.015793,274.189301,275.283325,25.000000,40.231583,0.638092,-13.799599
461775514.164390,0.035309,-0.200668,-0.926346,-0.488956,0.345426,1.066622,0.476155,0.100270,-0.216229,0.140279,0.037473,-0.033843,274.743500,275.837524,25.000000,40.093761,1.118820,-13.865932
461775514.197720,0.007187,-0.159302,-0.877045,-0.487062,0.345955,1.065910,0.475610,0.138427,-0.094992,-0.048071,0.078928,-0.014954,274.672363,275.766388,25.000000,39.955940,0.844116,-14.064930
461775514.230255,-0.031158,-0.135559,-0.844162,-0.484635,0.345631,1.064452,0.427485,0.217971,0.010496,-0.046876,0.075141,-0.033208,274.680084,275.774109,25.000000,40.059303,1.015808,-13.965427
461775514.264398,0.003128,-0.184418,-1.012527,-0.480753,0.344140,1.062958,0.406096,0.183610,-0.038678,-0.060477,0.118273,0.006491,274.674713,275.768738,25.000000,40.197124,0.603745,-14.031761
461775514.297726,0.022888,-0.206772,-1.066742,-0.477549,0.342992,1.063555,0.435961,0.151888,-0.176134,0.017034,0.091134,0.045175,274.663147,275.757172,25.000000,40.369400,0.706772,-13.600605
461775514.331016,0.068344,-0.149017,-0.933640,-0.476625,0.344065,1.065669,0.490259,0.171896,-0.177505,0.073281,-0.041973,-0.011630,274.651123,275.745148,25.000000,40.197124,0.672424,-13.169453
461775514.364337,0.025970,-0.132217,-0.829529,-0.479801,0.343994,1.064904,0.506413,0.207321,-0.036083,-0.058716,-0.116198,-0.004578,274.644135,275.738159,25.000000,40.231579,0.706772,-12.937290
461775514.397640,-0.033813,-0.117859,-0.864532,-0.485146,0.341764,1.063860,0.405553,0.217291,-0.031087,-0.103379,-0.209242,-0.000332,274.634918,275.728943,25.000000,40.128216,0.741104,-13.368446
461775514.431083,-0.086868,-0.127869,-1.040405,-0.490490,0.339615,1.061683,0.345535,0.220972,-0.157401,-0.078557,-0.167853,-0.033640,274.621582,275.715607,25.000000,39.818119,0.569412,-13.932266
461775514.464521,-0.042816,-0.212982,-1.124130,-0.491683,0.337039,1.059980,0.380927,0.136892,-0.373075,-0.033985,0.023607,0.005054,274.755463,275.849487,25.000000,39.852573,0.947128,-14.031761
461775514.497785,0.024292,-0.210648,-1.058945,-0.490492,0.339469,1.060073,0.436166,0.127817,-0.226054,0.009434,0.059987,-0.038897,274.506531,275.600555,25.000000,40.162670,0.844116,-13.865929
461775514.531077,0.062683,-0.164566,-0.978668,-0.487508,0.340374,1.058784,0.512887,0.156532,-0.123971,-0.005577,0.055052,-0.056043,274.765472,275.859497,25.000000,40.472767,1.153168,-13.501106
461775514.564318,0.146973,-0.074921,-1.232483,-0.486289,0.337619,1.055456,0.532197,0.180561,-0.351231,-0.132579,-0.016721,-0.045318,274.840668,275.934692,25.000000,40.300491,1.187500,-13.666939
461775514.597680,0.013718,-0.169632,-0.620728,-0.488900,0.342107,1.054364,0.599924,0.237069,-0.253104,0.329010,-0.164142,-0.136916,275.304413,276.398438,25.000000,40.300491,1.462204,-14.064930
461775514.631430,-0.048477,-0.191132,-0.793243,-0.498425,0.349320,1.054080,0.462889,0.172627,0.204563,-0.028373,-0.313161,-0.079601,275.057678,276.151703,25.000000,39.714752,1.153168,-14.429756
461775514.664380,-0.179123,-0.214630,-1.172348,-0.506288,0.343910,1.050911,0.328745,0.122083,-0.204843,-0.216420,-0.230543,0.060882,275.071320,276.165344,25.000000,39.611385,1.050156,-14.462925
461775514.697893,-0.014145,-0.210831,-0.939163,-0.507875,0.339453,1.050354,0.362776,0.092432,-0.383417,0.128033,0.132149,0.017200,275.352203,276.446228,25.000000,39.060101,1.256180,-14.462925
461775514.731106,0.028214,-0.177063,-0.783752,-0.504190,0.341745,1.053646,0.483375,0.158069,0.041181,0.040826,0.158571,0.063852,275.080078,276.174103,25.000000,39.404652,1.187500,-14.462925
461775514.764457,-0.030136,-0.084595,-0.790543,-0.502139,0.338555,1.054456,0.430269,0.231905,0.114792,-0.190686,0.020960,0.065650,275.364746,276.458771,25.000000,38.887825,1.290512,-14.562424
461775514.797760,-0.051453,-0.062119,-1.146469,-0.499509,0.331666,1.051720,0.394006,0.280330,-0.119165,-0.208412,0.073574,0.022290,275.501465,276.595490,25.000000,38.784458,1.462204,-14.263927
461775514.831058,0.023148,-0.016602,-1.258545,-0.497855,0.329302,1.050774,0.400430,0.261264,-0.315069,-0.126175,0.096488,0.016590,275.456635,276.550659,25.000000,38.853371,1.462204,-14.330261
461775514.864491,0.067993,-0.101959,-1.155518,-0.494829,0.335155,1.052712,0.473178,0.215634,-0.334368,0.189499,-0.010644,-0.012870,274.768799,275.862823,25.000000,39.542477,0.844116,-13.932270
461775514.897755,0.022324,-0.090057,-0.964935,-0.498997,0.340966,1.055825,0.515693,0.211214,-0.135177,0.144985,-0.120689,0.024487,274.398071,275.492096,25.000000,39.508022,0.741104,-14.031765
461775514.931134,0.018158,-0.081360,-1.051254,-0.502126,0.337667,1.055803,0.485133,0.249011,-0.236185,-0.099550,-0.031224,0.025142,274.077881,275.171906,25.000000,39.576931,0.535080,-13.501106
461775514.964434,0.001022,-0.103653,-1.011673,-0.502020,0.337337,1.055170,0.455587,0.258755,-0.135974,-0.016309,0.001136,-0.047746,274.124786,275.218811,25.000000,39.370197,0.535080,-13.501106
461775514.997705,-0.046127,-0.286942,-0.922974,-0.496201,0.337248,1.049617,0.475484,0.119023,-0.311467,0.121578,0.130204,-0.119960,273.875793,274.969818,25.000000,39.473564,0.432053,-13.401611
461775515.031072,-0.030029,-0.253769,-0.977097,-0.494848,0.344027,1.047789,0.403858,0.064103,-0.077166,0.018321,-0.019214,-0.149761,274.120117,275.214142,25.000000,39.232380,0.535080,-14.230762
461775515.064408,-0.045349,-0.308899,-0.892319,-0.494432,0.347009,1.044789,0.442341,0.075576,-0.208911,0.140811,-0.027940,-0.073096,274.031830,275.125854,25.000000,39.576935,0.397720,-14.230762
461775515.097657,0.073120,-0.187637,-0.805466,-0.493488,0.351423,1.045838,0.435610,0.048763,0.022769,0.100639,0.115953,-0.050435,274.380493,275.474518,25.000000,39.576935,0.603745,-14.429760
461775515.131032,0.097076,-0.092026,-0.769501,-0.486111,0.353016,1.044332,0.546109,0.219951,0.031661,-0.001819,0.251438,-0.046713,274.690643,275.784668,25.000000,39.508022,0.809784,-13.899101
461775515.164376,0.033600,-0.191635,-1.001053,-0.479734,0.352484,1.042803,0.471009,0.254562,0.012202,-0.099929,0.114582,-0.019258,275.510193,276.604218,25.000000,39.542477,1.393539,-13.666939
461775515.197663,-0.009811,-0.162003,-0.896866,-0.480139,0.353351,1.043457,0.439560,0.111424,-0.177814,0.173902,-0.152829,0.006240,275.418884,276.512909,25.000000,39.645844,1.221848,-13.832767
461775515.231125,-0.045074,-0.201248,-0.982025,-0.488388,0.357034,1.045827,0.413857,0.181894,-0.084587,0.038134,-0.197518,0.025169,275.632080,276.726105,25.000000,40.059307,1.702576,-13.965431
461775515.264322,0.051666,-0.070862,-1.338608,-0.491120,0.352615,1.047261,0.426346,0.189805,-0.392832,-0.137829,0.032246,0.153298,275.706360,276.800385,25.000000,39.645844,1.290512,-14.429760
461775515.297867,0.066864,-0.133667,-0.772232,-0.490039,0.349428,1.052066,0.517611,0.302337,-0.465728,0.121518,0.101071,0.154400,275.191650,276.285675,25.000000,39.508022,0.809784,-14.695087
461775515.331177,-0.061279,-0.060867,-0.493683,-0.489577,0.355212,1.059607,0.507760,0.214122,0.055206,0.304678,0.035896,0.057627,274.776703,275.870728,25.000000,39.129017,0.500732,-14.728256
461775515.364389,-0.116318,-0.005783,-0.943512,-0.488257,0.343089,1.055054,0.354011,0.298281,0.118929,-0.685544,0.079800,0.085003,274.902863,275.996887,25.000000,39.439114,0.741104,-14.363426
461775515.397712,-0.169449,-0.100220,-1.657181,-0.485770,0.326425,1.049748,0.249670,0.285060,-0.475919,-0.355025,0.038929,0.065976,275.533875,276.627899,25.000000,39.645844,1.359192,-13.899101
461775515.430199,0.036011,-0.284805,-1.080215,-0.481786,0.327215,1.047764,0.432185,0.061230,-0.911293,0.387296,0.142376,-0.151427,275.244781,276.338806,25.000000,40.266037,1.359192,-13.633774
461775515.464384,-0.028076,-0.352753,-0.812271,-0.481403,0.344264,1.053543,0.406711,-0.010610,-0.043789,0.316824,0.106640,-0.028560,275.368408,276.462433,25.000000,40.266037,1.633896,-14.031765
461775515.497708,0.009384,-0.167007,-0.734100,-0.475055,0.344487,1.051492,0.463093,0.094092,-0.011412,-0.106499,0.245634,-0.096622,275.158752,276.252777,25.000000,40.610588,1.221848,-13.965435
461775515.531048,0.165359,-0.013596,-0.811920,-0.461516,0.342863,1.043338,0.439742,0.230045,0.140414,-0.252100,0.434471,-0.246020,275.223175,276.317200,25.000000,40.507221,1.256180,-13.932270
461775515.564408,0.164658,-0.030426,-0.878433,-0.440192,0.338068,1.032180,0.559846,0.325714,0.013390,-0.230925,0.505792,-0.202647,274.661102,275.755127,25.000000,40.748405,0.878464,-13.036785
461775515.597877,0.156265,-0.164139,-0.864212,-0.427864,0.338421,1.025111,0.568396,0.178174,-0.036788,0.025644,0.153778,-0.177658,274.837677,275.931702,25.000000,40.403858,1.153168,-12.307129
461775515.631403,0.170090,-0.192642,-0.905716,-0.430698,0.345207,1.022210,0.580649,0.182843,-0.010838,0.154245,-0.299217,-0.117421,274.980591,276.074615,25.000000,40.300491,1.256180,-12.273960
461775515.664373,0.106827,-0.137894,-0.796814,-0.452326,0.353679,1.024927,0.516834,0.208458,0.046948,0.196188,-0.455795,0.010123,275.405670,276.499695,25.000000,40.472767,1.427872,-12.771454
461775515.697677,-0.018234,-0.209183,-0.722244,-0.466588,0.355542,1.029466,0.431122,0.139556,0.171099,0.021868,-0.363368,0.160374,275.917236,277.011261,25.000000,40.300491,1.599564,-13.467945
461775515.731062,-0.128708,-0.173691,-1.210419,-0.473367,0.353062,1.031971,0.404969,0.146141,-0.016514,-0.097684,-0.367466,0.209523,276.037445,277.131470,25.000000,40.162670,1.599564,-13.666943
461775515.764420,-0.195389,-0.205460,-1.383301,-0.496322,0.348382,1.037849,0.252199,0.135918,-0.556786,-0.059247,-0.446865,0.084945,276.167725,277.261749,25.000000,39.645840,1.702576,-13.766438
461775515.797743,-0.098587,-0.235352,-1.669952,-0.505481,0.343131,1.038663,0.335349,0.074704,-0.876624,-0.052210,-0.160646,0.125976,275.814087,276.908112,25.000000,39.473564,1.530884,-13.600605
461775515.831049,0.013794,-0.072342,-0.878876,-0.507688,0.347743,1.045151,0.428891,0.165835,-0.374297,0.272436,0.106282,0.058696,275.655762,276.749786,25.000000,39.473564,1.393539,-13.799603
461775515.864455,0.073227,-0.023697,-0.980194,-0.504596,0.348842,1.046537,0.468129,0.269468,-0.056230,-0.019893,0.284185,0.032729,275.384430,276.478455,25.000000,39.335743,1.324860,-13.666939
461775515.897741,0.024246,-0.021851,-0.723373,-0.490709,0.344151,1.043494,0.500747,0.323696,-0.188610,-0.071717,0.412630,-0.086069,275.684753,276.778778,25.000000,39.404652,1.530884,-13.534275
461775515.930175,0.076492,-0.096069,-0.867813,-0.473520,0.341740,1.033068,0.474986,0.273756,0.022434,-0.226247,0.254584,-0.164977,275.760956,276.854980,25.000000,39.301289,1.702576,-13.103119
461775515.964716,0.033737,-0.110184,-0.951126,-0.468877,0.338613,1.028197,0.488054,0.229534,-0.079996,-0.082915,-0.028772,-0.034249,276.135590,277.229614,25.000000,39.887028,2.080307,-13.202614
461775515.997530,0.069946,-0.083267,-1.011261,-0.471234,0.338417,1.025649,0.519057,0.275750,-0.196439,0.029346,-0.110562,-0.086257,275.756226,276.850250,25.000000,39.818119,1.805588,-12.738285
461775516.031074,0.023224,-0.145569,-1.028809,-0.475495,0.342918,1.025541,0.463428,0.192209,-0.103798,0.103188,-0.156045,-0.038878,275.693878,276.787903,25.000000,39.576931,1.702576,-13.169445
461775516.064330,-0.020020,-0.147781,-0.993057,-0.483691,0.344231,1.026950,0.449609,0.198663,-0.283853,0.108827,-0.308992,0.049311,275.383606,276.477631,25.000000,39.370201,1.496552,-12.837784
461775516.097712,-0.062714,-0.113174,-0.878464,-0.497714,0.351296,1.032606,0.428242,0.196334,-0.168044,0.276082,-0.373582,0.046354,275.331055,276.425079,25.000000,39.714756,1.359192,-13.633770
461775516.131071,0.021820,-0.061264,-1.036072,-0.504558,0.350236,1.034356,0.497546,0.291804,-0.276800,-0.087742,0.022039,0.051831,274.780975,275.875000,25.000000,39.852573,0.809784,-13.766438
461775516.164355,0.090317,-0.155594,-0.859451,-0.498758,0.352521,1.033878,0.500312,0.260365,-0.169265,0.078276,0.260845,-0.133575,275.040863,276.134888,25.000000,39.749210,1.050156,-13.998600
461775516.197712,-0.003616,-0.239105,-0.858124,-0.488905,0.358824,1.029490,0.530064,0.195579,-0.032832,0.095607,0.185396,-0.226633,275.105682,276.199707,25.000000,39.301289,1.084488,-13.965431
461775516.231063,-0.089737,-0.227020,-1.083160,-0.485824,0.361573,1.023498,0.404214,0.107347,-0.101948,-0.065712,-0.060168,-0.157097,275.191559,276.285583,25.000000,39.232380,1.221848,-13.368443
461775516.264325,-0.013168,-0.248367,-1.157578,-0.488694,0.365042,1.021306,0.328432,0.145716,-0.195862,0.154144,-0.114769,-0.085330,275.494446,276.588470,25.000000,39.508022,1.427872,-13.434772
461775516.297969,0.007767,-0.286682,-0.892151,-0.486188,0.368337,1.021202,0.422750,0.111698,-0.332757,0.193507,0.201935,-0.041871,275.636871,276.730896,25.000000,40.300495,1.599564,-13.202610
461775516.330302,0.097687,-0.239243,-0.726318,-0.481457,0.379151,1.025493,0.441612,0.045089,0.046091,0.314465,0.201366,-0.045821,276.044525,277.138550,25.000000,40.334949,1.839935,-13.368443
461775516.364306,0.218079,-0.132309,-1.358261,-0.469324,0.379582,1.024847,0.551208,0.179812,-0.110285,-0.267684,0.235237,0.055535,275.989594,277.083618,25.000000,40.162674,1.668243,-13.202610
461775516.397709,0.260437,-0.154266,-1.362900,-0.462120,0.375637,1.025281,0.653560,0.239195,-0.594290,0.180107,0.165568,0.029151,276.157257,277.251282,25.000000,39.955940,1.599564,-12.937283
461775516.430722,0.164658,-0.186783,-0.745331,-0.464891,0.385359,1.030209,0.617687,0.165519,-0.088034,0.380227,-0.152285,-0.038156,275.914734,277.008759,25.000000,39.990395,1.496552,-12.837788
461775516.464457,-0.113190,-0.194275,-0.668549,-0.477273,0.393391,1.034502,0.445236,0.194403,0.309309,0.055596,-0.382223,0.060477,275.782959,276.876984,25.000000,39.955936,1.256180,-12.804619
461775516.497707,-0.147751,-0.174255,-1.091873,-0.485375,0.381425,1.034087,0.294630,0.182424,-0.052645,-0.520565,-0.154126,0.225825,276.073639,277.167664,25.000000,39.473564,1.393539,-13.202610
461775516.531042,-0.001511,-0.136520,-1.203400,-0.482601,0.369282,1.034803,0.294219,0.225524,-0.556538,-0.061663,0.260548,0.132478,276.239624,277.333649,25.000000,39.439110,1.427872,-13.169445
461775516.564379,0.183655,-0.213226,-0.786194,-0.473356,0.375658,1.041337,0.524489,0.132036,-0.050212,0.323197,0.358996,0.051477,276.175781,277.269806,25.000000,39.749207,1.736923,-13.268944
461775516.597760,0.138153,-0.186844,-0.818405,-0.467810,0.379185,1.044558,0.608416,0.162018,0.030634,0.000829,0.074451,0.040869,276.139038,277.233063,25.000000,39.955936,1.736923,-13.335278
461775516.631382,0.106873,-0.122009,-1.150162,-0.471454,0.374236,1.042610,0.546206,0.191672,-0.182686,-0.224304,-0.213118,-0.003136,275.667389,276.761414,25.000000,40.059303,1.221848,-13.368443
461775516.664366,-0.025620,-0.204239,-0.978485,-0.482075,0.373053,1.040142,0.422392,0.176258,-0.193401,0.078817,-0.248871,-0.006563,275.631622,276.725647,25.000000,40.059307,1.153168,-13.368443
461775516.697433,-0.068253,-0.232773,-0.991653,-0.489847,0.373798,1.041807,0.369750,0.132381,-0.170181,0.016479,-0.179562,0.048392,275.364594,276.458618,25.000000,40.024853,0.981476,-13.335278
461775516.731091,-0.051620,-0.251175,-0.939285,-0.492311,0.373673,1.042629,0.347487,0.100343,-0.200062,0.022509,-0.103545,0.040360,275.674866,276.768890,25.000000,40.266041,1.290512,-13.434772
461775516.764346,0.106918,-0.222290,-0.813324,-0.486066,0.374500,1.041711,0.471944,0.079934,-0.004756,-0.048635,0.296252,-0.070309,275.074219,276.168243,25.000000,40.024853,0.775436,-13.202610
461775516.797992,0.181549,-0.179657,-0.800232,-0.473978,0.371360,1.037968,0.606866,0.183226,0.028877,-0.185676,0.338995,-0.013204,275.380981,276.475006,25.000000,40.266041,1.221848,-12.904118
461775516.831114,0.158783,-0.074188,-1.033279,-0.465993,0.364079,1.034541,0.592756,0.265726,-0.153297,-0.209913,0.098799,0.029266,275.714508,276.808533,25.000000,39.818119,1.393539,-12.804619
461775516.864438,0.043076,-0.240417,-1.101883,-0.466029,0.362180,1.034057,0.559581,0.269399,-0.201614,-0.073579,-0.078572,0.023535,276.329498,277.423523,25.000000,40.162670,1.942947,-13.003620
461775516.897727,-0.101685,-0.189514,-1.042709,-0.484776,0.360494,1.037305,0.422888,0.125564,-0.301105,0.041185,-0.508182,0.104335,276.004181,277.098206,25.000000,39.921482,1.565231,-13.036781
461775516.931110,-0.114899,-0.179169,-1.104385,-0.499718,0.356945,1.040948,0.321793,0.169543,-0.236764,-0.156176,-0.278649,0.172522,275.440155,276.534180,25.000000,40.231583,1.256180,-13.202610
461775516.964908,0.015350,-0.072449,-0.973679,-0.502602,0.351079,1.044768,0.396615,0.207177,-0.281538,-0.033508,0.075595,0.179756,274.821838,275.915863,25.000000,40.059307,0.809784,-13.368443
461775516.997665,0.074524,-0.031937,-0.805923,-0.496965,0.348689,1.048859,0.493632,0.304465,-0.047492,0.006828,0.290890,0.085197,274.797302,275.891327,25.000000,40.231583,0.844116,-13.268944
461775517.031075,0.072525,-0.033417,-0.874298,-0.487819,0.346073,1.048493,0.517709,0.308444,0.008490,-0.161658,0.231073,0.003984,274.732239,275.826263,25.000000,40.128216,1.015808,-12.970448
461775517.064679,0.018738,-0.109695,-1.105347,-0.483560,0.341612,1.044624,0.475513,0.278274,-0.171643,-0.141302,-0.014759,-0.049532,274.789886,275.883911,25.000000,40.162670,1.187500,-12.406628
461775517.097760,-0.027679,-0.192749,-1.074890,-0.488087,0.341173,1.042669,0.448013,0.202192,-0.292080,0.043854,-0.243790,-0.036075,274.455078,275.549103,25.000000,40.197124,0.878464,-12.572456
461775517.131082,-0.039490,-0.195190,-0.955673,-0.496055,0.344183,1.043337,0.403108,0.141017,-0.197930,0.113617,-0.202211,-0.016339,274.457458,275.551483,25.000000,40.162670,0.981476,-12.472961
461775517.164350,-0.000809,-0.143616,-0.977951,-0.499550,0.345981,1.043737,0.393745,0.143228,-0.050988,-0.022750,-0.016270,-0.014353,274.737488,275.831512,25.000000,40.162674,1.187500,-12.738285
461775517.197748,0.056305,-0.099655,-1.046219,-0.496801,0.344091,1.042312,0.449639,0.205001,-0.186625,-0.023072,0.110097,-0.021715,275.109283,276.203308,25.000000,40.231586,1.530884,-12.671955
461775517.231066,0.107620,-0.058594,-0.982330,-0.491782,0.344537,1.040503,0.500752,0.238106,-0.216530,0.021545,0.145158,-0.081505,274.854736,275.948761,25.000000,40.507225,1.256180,-12.870953
461775517.264382,0.059250,-0.140381,-0.927292,-0.488813,0.349654,1.038964,0.522570,0.239454,-0.042968,0.101539,0.015727,-0.119864,274.433563,275.527588,25.000000,40.369404,0.981476,-12.406628
461775517.297988,-0.021591,-0.178055,-1.062332,-0.490402,0.351981,1.036448,0.476239,0.188051,-0.120121,0.028468,-0.153115,-0.085799,274.817688,275.911713,25.000000,39.990391,1.153168,-12.904118
461775517.331142,-0.039612,-0.189163,-1.100952,-0.498494,0.353269,1.033754,0.408967,0.156803,-0.276887,0.009767,-0.119600,-0.038608,275.279114,276.373138,25.000000,39.852573,1.565231,-12.837788
461775517.364383,0.029144,-0.203827,-1.088699,-0.499317,0.353995,1.034358,0.456171,0.119414,-0.343562,0.113153,0.018947,0.023024,275.611237,276.705261,25.000000,39.887028,1.736923,-13.401611
461775517.397710,0.089691,-0.163269,-0.954529,-0.498896,0.358802,1.036854,0.465245,0.163485,-0.034635,0.055556,0.055787,-0.020484,275.444855,276.538879,25.000000,40.128216,1.633896,-13.302113
461775517.431291,0.060944,-0.133301,-1.030457,-0.496739,0.357017,1.035873,0.523552,0.189722,-0.208704,-0.020399,0.016905,-0.012137,275.353455,276.447479,25.000000,39.887028,1.530884,-12.937286
461775517.464381,-0.029327,-0.217239,-1.005295,-0.498199,0.357290,1.034441,0.439611,0.170095,-0.163161,-0.029142,-0.069162,-0.053968,275.539978,276.634003,25.000000,40.024853,1.668243,-12.804619
461775517.497711,-0.056274,-0.186050,-0.954544,-0.499123,0.356745,1.032754,0.405459,0.141844,-0.189439,-0.030407,-0.014974,-0.020357,275.749817,276.843842,25.000000,39.818119,1.874268,-12.539291
461775517.530963,0.035675,-0.148727,-0.945236,-0.496448,0.356013,1.031402,0.380383,0.172224,-0.109282,-0.056938,0.122568,-0.025590,275.805817,276.899841,25.000000,39.783665,1.908615,-12.638786
461775517.564386,0.073959,-0.121658,-0.951004,-0.489759,0.353976,1.030289,0.476923,0.197902,-0.117500,-0.050825,0.220902,0.007638,275.572723,276.666748,25.000000,39.749210,1.736923,-12.472961
461775517.597777,0.153427,-0.054245,-0.913788,-0.484193,0.353533,1.029203,0.560653,0.272530,-0.104591,-0.013310,0.110015,-0.040991,275.994202,277.088226,25.000000,39.645844,2.045959,-12.771454
461775517.630365,0.043274,-0.076447,-0.893738,-0.483135,0.353099,1.027069,0.585006,0.287473,-0.089806,-0.049048,-0.075148,-0.043079,275.777222,276.871246,25.000000,39.680298,1.805588,-12.870953
461775517.664394,-0.028000,-0.098694,-0.970337,-0.494654,0.350547,1.024328,0.417857,0.244718,-0.143729,-0.114368,-0.348157,0.015313,276.034576,277.128601,25.000000,39.094559,1.908615,-13.368443
461775517.697748,-0.152618,-0.131775,-1.070007,-0.504861,0.347355,1.023634,0.324366,0.208302,-0.240264,-0.078269,-0.289295,0.036963,275.455139,276.549164,25.000000,39.197926,1.530884,-13.069950
461775517.730288,-0.080170,-0.115829,-1.082291,-0.508375,0.345646,1.023373,0.309853,0.218962,-0.261928,-0.118406,-0.187233,0.040519,275.426880,276.520905,25.000000,39.060104,1.530884,-13.467945
461775517.764414,-0.023254,-0.087357,-1.041138,-0.508326,0.342004,1.023248,0.435273,0.248019,-0.218170,-0.061765,0.092209,0.019868,275.533783,276.627808,25.000000,38.922283,1.736923,-13.003616
461775517.797757,0.075912,-0.090302,-0.969315,-0.503833,0.342475,1.022147,0.524970,0.251499,-0.188623,0.056361,0.120657,-0.066135,275.925842,277.019867,25.000000,38.474365,2.183319,-12.904118
461775517.831115,0.018570,-0.117126,-0.963196,-0.500885,0.344318,1.019710,0.517797,0.244491,-0.123850,-0.008400,0.015235,-0.108263,275.954865,277.048889,25.000000,38.922283,2.355011,-12.340294
461775517.864421,-0.034103,-0.142715,-0.990524,-0.502917,0.346074,1.016302,0.443016,0.204030,-0.160203,0.023192,-0.171490,-0.115921,276.064087,277.158112,25.000000,38.922283,2.423691,-12.340294
461775517.897816,-0.120926,-0.181076,-1.044464,-0.508101,0.348349,1.013462,0.363166,0.161964,-0.198504,0.017078,-0.177418,-0.082967,275.756378,276.850403,25.000000,38.991196,2.148972,-12.207630
461775517.931114,0.004562,-0.122528,-1.132568,-0.509767,0.348813,1.011736,0.368088,0.152543,-0.269367,0.001774,0.027842,-0.038768,276.007416,277.101440,25.000000,38.508820,2.355011,-11.875965
461775517.964654,0.137299,-0.125732,-1.282074,-0.504987,0.347083,1.011085,0.522284,0.207328,-0.408285,-0.043261,0.192913,0.037325,276.211609,277.305634,25.000000,38.646641,2.561035,-11.809635
461775517.997744,0.189285,-0.077072,-0.729645,-0.501689,0.355456,1.014264,0.616860,0.227062,-0.207167,0.385496,0.076047,-0.120481,276.730408,277.824432,25.000000,38.577728,2.973099,-11.809635
461775518.031090,0.034729,-0.101212,-0.730072,-0.501589,0.360804,1.012401,0.617830,0.267486,0.107290,-0.036770,-0.130638,-0.114329,276.972351,278.066376,25.000000,38.577728,3.110458,-11.942303
461775518.064391,-0.092468,-0.100159,-0.887436,-0.509235,0.359131,1.007354,0.423174,0.251302,0.042986,-0.218086,-0.394667,-0.071602,277.312927,278.406952,25.000000,38.336540,3.213486,-12.108131
461775518.097719,-0.209015,-0.175613,-1.262802,-0.520109,0.353124,1.002382,0.298372,0.207372,-0.313953,-0.170544,-0.345346,0.010012,277.696960,278.790985,25.000000,37.888622,3.385162,-12.207630
461775518.131052,-0.111130,-0.195908,-0.835205,-0.526727,0.353257,1.004395,0.276521,0.143319,-0.432834,0.239138,-0.021742,0.053840,278.129791,279.223816,25.000000,37.991989,3.831543,-12.307129
461775518.164492,-0.052048,-0.143600,-0.778152,-0.524105,0.357246,1.009813,0.401597,0.168147,0.033888,0.052833,0.229637,0.086512,278.099701,279.193726,25.000000,38.370998,3.865875,-12.804619
461775518.197683,0.032516,-0.009903,-1.221695,-0.516536,0.351103,1.009835,0.434583,0.306977,-0.143107,-0.289980,0.184616,0.097761,277.626251,278.720276,25.000000,38.818916,3.419479,-12.771454
461775518.230315,0.145813,-0.064072,-0.947327,-0.512176,0.347635,1.009704,0.525487,0.327552,-0.403226,0.137752,0.077901,0.013032,277.101776,278.195801,25.000000,39.301289,3.076096,-13.169445
461775518.264750,-0.027451,-0.150040,-0.989990,-0.511491,0.354507,1.011545,0.604855,0.283056,-0.129535,0.227236,0.035088,-0.111521,276.292999,277.387024,25.000000,39.335743,2.492355,-13.202610
461775518.297901,-0.112747,-0.204224,-1.299423,-0.514002,0.358015,1.008619,0.433042,0.200376,-0.174419,-0.118974,-0.205239,-0.134952,276.462585,277.556610,25.000000,39.335743,2.629715,-13.268944
461775518.331011,-0.093231,-0.298294,-1.378113,-0.520362,0.355774,1.003026,0.329981,0.035511,-0.709064,0.051742,0.029080,-0.009099,276.308746,277.402771,25.000000,38.887829,2.251999,-13.368443
461775518.364378,0.055344,-0.206558,-0.643188,-0.515449,0.364391,1.007702,0.488774,0.109371,-0.125503,0.372803,0.309837,-0.019203,276.941833,278.035858,25.000000,38.956741,2.938751,-13.103115
461775518.397766,0.125931,-0.205765,-0.524612,-0.503401,0.373823,1.010298,0.501155,0.218738,0.270424,0.156462,0.420841,-0.115880,276.974548,278.068573,25.000000,38.508823,2.904404,-13.003620
461775518.431071,0.058807,-0.052368,-0.684616,-0.489435,0.372413,1.007272,0.504353,0.235004,0.308411,-0.244640,0.317491,-0.047154,277.256470,278.350494,25.000000,38.887829,2.938751,-12.904121
461775518.464382,0.070847,-0.043915,-1.135071,-0.480644,0.362788,1.000548,0.512045,0.341729,-0.133099,-0.340133,0.127848,-0.020373,276.699127,277.793152,25.000000,39.163471,2.320663,-13.103115
461775518.497668,0.078766,-0.156082,-1.208954,-0.479635,0.359621,0.999577,0.508520,0.270483,-0.354250,0.060936,-0.089572,0.050740,276.345551,277.439575,25.000000,39.576935,2.045944,-13.169445
461775518.531085,0.061478,-0.189728,-0.860855,-0.487993,0.367731,1.007069,0.463281,0.158907,-0.198297,0.409434,-0.259023,0.097793,276.170593,277.264618,25.000000,39.680302,2.148972,-12.738285
461775518.564387,0.080566,-0.070908,-1.023087,-0.498325,0.368505,1.014104,0.522330,0.154471,-0.108807,-0.058040,-0.187578,0.208192,275.941772,277.035797,25.000000,39.473568,1.942932,-12.738285
461775518.597692,0.083908,-0.022751,-0.921860,-0.506385,0.363258,1.017498,0.547714,0.340429,-0.168784,-0.093316,-0.192942,0.095733,276.002808,277.096832,25.000000,39.542477,1.874252,-13.003616
461775518.631362,-0.074875,-0.070496,-0.915100,-0.509982,0.359567,1.017270,0.460712,0.308641,-0.036438,-0.123695,-0.091291,0.032267,275.709930,276.803955,25.000000,39.266834,1.599548,-13.534275
461775518.664363,-0.100174,-0.122818,-1.274872,-0.514176,0.352158,1.014932,0.342845,0.257415,-0.387372,-0.099906,-0.112186,0.046078,276.000946,277.094971,25.000000,39.266834,2.011612,-13.534275
461775518.697822,-0.067749,-0.179337,-1.218903,-0.516429,0.351731,1.015818,0.363374,0.221706,-0.458522,0.069746,-0.114114,0.058374,276.171112,277.265137,25.000000,39.129013,2.217636,-13.335278
461775518.731066,-0.004486,-0.183701,-0.822861,-0.517747,0.360339,1.021301,0.452808,0.141211,-0.051325,0.085302,0.067065,-0.011634,276.048523,277.142548,25.000000,38.922283,2.148972,-13.335278
461775518.764420,-0.016266,-0.139328,-0.897659,-0.516126,0.360042,1.020860,0.456973,0.210239,-0.000313,-0.074450,0.109478,-0.018158,275.628052,276.722076,25.000000,39.129017,1.805588,-13.401611
461775518.797714,0.010757,-0.055649,-0.996338,-0.508050,0.355530,1.017000,0.466809,0.292438,-0.177282,-0.071982,0.093407,-0.037499,275.354736,276.448761,25.000000,39.473568,1.599548,-12.937286
461775518.831077,-0.062714,-0.162003,-0.946152,-0.507015,0.359341,1.016794,0.407284,0.224186,-0.122007,0.156461,-0.030467,-0.058919,275.213379,276.307404,25.000000,39.439114,1.496536,-12.904118
461775518.864453,0.080765,-0.149887,-1.096909,-0.507499,0.362946,1.017487,0.432467,0.167163,-0.200397,0.069183,0.025407,-0.012561,275.167877,276.261902,25.000000,39.714756,1.496536,-13.235779
461775518.897762,0.096130,-0.165100,-0.969055,-0.507023,0.364534,1.018185,0.534434,0.206626,-0.280158,0.141419,0.058302,-0.014750,275.492218,276.586243,25.000000,39.990395,1.702560,-13.832767
461775518.931105,0.079483,-0.196167,-0.978531,-0.504559,0.372868,1.020202,0.565423,0.192215,-0.070841,0.016742,0.025661,-0.027578,275.840637,276.934662,25.000000,40.472767,1.977280,-13.832767
461775518.964614,0.020935,-0.196030,-1.329132,-0.507822,0.370063,1.019398,0.504412,0.135371,-0.457900,-0.056093,-0.208089,0.031536,276.133484,277.227509,25.000000,40.886234,2.251984,-13.235779
461775518.997845,-0.001175,-0.158508,-1.071060,-0.516203,0.373446,1.021163,0.472547,0.206791,-0.399305,0.190675,-0.205780,-0.015402,276.358093,277.452118,25.000000,40.748409,2.320663,-13.302113
461775519.031130,-0.024689,-0.178574,-0.790588,-0.520272,0.377188,1.024213,0.435987,0.170477,-0.031323,0.106838,-0.008736,0.040556,276.395447,277.489471,25.000000,40.541676,2.320663,-13.567440
461775519.064410,0.005325,-0.150299,-1.014252,-0.518116,0.376015,1.025636,0.456112,0.230300,0.000609,-0.134124,0.134924,0.066609,276.761780,277.855804,25.000000,39.955936,2.423676,-14.197598
461775519.097717,-0.016739,-0.163010,-0.766403,-0.513899,0.372778,1.025729,0.469838,0.229545,-0.196498,0.074105,0.085863,0.019888,276.809875,277.903900,25.000000,40.059303,2.389328,-14.297092
461775519.131033,-0.037674,-0.152161,-0.808044,-0.511687,0.372994,1.025483,0.439242,0.201396,0.045564,-0.101798,0.093955,0.007483,276.465363,277.559387,25.000000,40.059303,2.114624,-14.297092
461775519.164402,-0.074997,-0.107513,-1.065933,-0.508830,0.371163,1.024803,0.359318,0.220198,0.034673,-0.076727,0.062024,0.023854,275.530334,276.624359,25.000000,40.817318,1.359177,-14.562420
461775519.197716,0.093781,-0.171585,-1.422211,-0.507189,0.365241,1.023568,0.404885,0.267544,-0.435925,-0.138850,0.029429,0.071285,275.316010,276.410034,25.000000,40.748409,1.221832,-14.496090
461775519.231046,0.114487,-0.179794,-1.030563,-0.510202,0.368131,1.028429,0.549415,0.188287,-0.608031,0.388960,-0.108027,0.058389,275.682159,276.776184,25.000000,40.334946,1.702560,-13.899101
461775519.264398,0.158646,-0.066956,-0.731583,-0.516775,0.382678,1.034133,0.598279,0.218240,-0.013553,0.319781,-0.138263,-0.141923,275.669739,276.763763,25.000000,39.783665,1.702560,-13.832771
461775519.297939,-0.028992,-0.104599,-1.377609,-0.519542,0.381418,1.030612,0.540119,0.281173,-0.054151,-0.283464,-0.125066,-0.023442,275.809204,276.903229,25.000000,39.335747,1.736908,-13.666943
461775519.331029,-0.103668,-0.174469,-1.231323,-0.524937,0.373931,1.024701,0.425390,0.241834,-0.620314,0.306301,-0.179692,-0.098912,276.383392,277.477417,25.000000,38.646641,1.942917,-13.865940
461775519.363835,-0.225220,-0.270737,-0.837616,-0.528455,0.382542,1.027066,0.219282,0.091099,0.117420,-0.051841,0.039644,-0.008672,276.508270,277.602295,25.000000,38.887829,2.183289,-14.031769
461775519.397710,-0.051178,-0.157074,-1.201538,-0.523429,0.373561,1.024759,0.341723,0.135639,-0.411838,-0.197756,0.235088,0.137187,276.808350,277.902374,25.000000,39.197926,2.354980,-14.197598
461775519.431076,0.063812,-0.131378,-0.986298,-0.514312,0.374711,1.028446,0.464806,0.239997,-0.288595,0.225462,0.383371,-0.000139,276.519867,277.613892,25.000000,39.576935,2.183304,-13.965431
461775519.464381,0.141022,-0.128204,-0.596024,-0.501337,0.383605,1.029919,0.618475,0.246550,0.068974,0.220200,0.371850,-0.091566,276.299255,277.393280,25.000000,39.473568,2.080292,-13.865932
461775519.497704,0.095673,-0.115189,-0.877213,-0.494733,0.384734,1.028985,0.552545,0.266090,0.184427,-0.150523,0.083067,-0.019540,275.824097,276.918121,25.000000,39.266834,1.668228,-13.467941
461775519.531074,0.080353,-0.080307,-1.148209,-0.496150,0.378861,1.025973,0.526392,0.268819,-0.196003,-0.159690,-0.219856,0.010249,275.650513,276.744537,25.000000,39.576931,1.359177,-13.302113
461775519.564325,-0.046600,-0.262878,-1.267075,-0.507190,0.380727,1.025876,0.512878,0.256835,-0.517961,0.234584,-0.382738,-0.049776,275.500793,276.594818,25.000000,39.714752,1.290512,-13.036781
461775519.597757,-0.115128,-0.291687,-1.133026,-0.522809,0.391012,1.031344,0.313207,0.053411,-0.324004,0.266027,-0.414471,0.008122,275.652802,276.746826,25.000000,39.611385,1.530869,-13.335274
461775519.631314,-0.066574,-0.204117,-0.869720,-0.533370,0.394147,1.035156,0.382753,0.148929,-0.238923,0.174655,-0.203928,0.057788,275.568085,276.662109,25.000000,39.197926,1.187485,-13.733265
461775519.664346,-0.023911,-0.104813,-0.475296,-0.529686,0.397040,1.037703,0.442047,0.281878,0.320539,-0.091406,0.384647,-0.029412,275.408752,276.502777,25.000000,38.818916,1.015793,-13.832767
461775519.697740,0.041718,-0.007874,-0.750046,-0.510289,0.388709,1.032208,0.460492,0.331447,0.253063,-0.515771,0.604073,0.022500,275.353149,276.447174,25.000000,39.094563,1.015793,-13.633770
461775519.731129,0.077118,-0.143112,-1.745148,-0.491767,0.373392,1.024552,0.457944,0.314819,-0.424723,-0.377923,0.311329,0.015490,275.869324,276.963348,25.000000,39.680302,1.599548,-13.136280
461775519.764485,0.149384,-0.227112,-1.796661,-0.490001,0.372051,1.023135,0.515546,0.220415,-0.923182,0.046713,-0.055493,-0.059351,276.006500,277.100525,25.000000,39.990395,1.771240,-12.771458
461775519.797730,-0.003891,-0.318268,-0.902069,-0.515896,0.402012,1.033542,0.506369,0.052907,-0.225437,0.544774,-0.731303,-0.023189,274.944336,276.038361,25.000000,39.370201,1.290512,-12.970451
461775519.831106,-0.098175,-0.292358,-0.699173,-0.538323,0.408376,1.040702,0.372361,0.104761,0.088794,0.130573,-0.494361,0.098167,274.775330,275.869354,25.000000,38.681095,0.878448,-13.434776
461775519.864362,-0.136642,-0.146713,-0.764420,-0.543266,0.403808,1.041005,0.341661,0.237848,0.095861,-0.260203,0.160194,0.065548,274.723846,275.817871,25.000000,38.543278,0.603745,-13.832767
461775519.897755,-0.070236,-0.072037,-0.957260,-0.528971,0.395286,1.036043,0.331301,0.287904,-0.088441,-0.266372,0.493372,-0.054942,274.745453,275.839478,25.000000,39.060101,0.706757,-13.733273
461775519.931100,0.016861,-0.190155,-1.126022,-0.519052,0.392159,1.032469,0.388163,0.310147,-0.154885,-0.274051,0.534970,-0.084696,274.604980,275.699005,25.000000,39.576927,0.809769,-13.235783
461775519.964249,0.085800,-0.219070,-1.082474,-0.501037,0.393537,1.029533,0.500655,0.182087,-0.291645,0.166127,0.119760,-0.018632,274.380707,275.474731,25.000000,39.439110,0.672409,-13.235779
461775519.997740,0.058334,-0.236481,-0.827423,-0.504164,0.400502,1.033820,0.495385,0.177295,-0.083191,0.222992,-0.147845,0.016190,274.385864,275.479889,25.000000,39.197926,0.706757,-13.136280
461775520.031075,-0.043533,-0.190521,-0.837219,-0.510277,0.400676,1.035930,0.487012,0.198482,-0.081269,0.013607,-0.163797,0.056271,274.147858,275.241882,25.000000,39.266834,0.294693,-13.467937
461775520.064392,-0.022751,-0.163284,-1.026001,-0.516099,0.399333,1.037202,0.416776,0.212351,-0.121975,-0.104933,-0.121474,0.067144,274.249054,275.343079,25.000000,39.611389,0.294693,-13.733269
461775520.097848,0.001328,-0.158981,-1.036240,-0.518755,0.399253,1.038752,0.430255,0.254911,-0.147969,0.078020,-0.039147,0.012821,274.083374,275.177399,25.000000,39.852573,0.191681,-13.700104
461775520.131069,-0.061020,-0.172089,-0.931259,-0.518953,0.398125,1.039285,0.464246,0.233104,-0.326573,0.048059,-0.003331,0.029316,274.012268,275.106293,25.000000,39.508022,0.260361,-13.434776
461775520.164334,-0.079163,-0.207794,-1.113800,-0.523044,0.400267,1.040923,0.399016,0.217575,-0.133431,-0.056440,-0.128094,0.018780,274.170654,275.264679,25.000000,39.783661,0.535065,-12.970448
461775520.197691,-0.097702,-0.235474,-1.094238,-0.528304,0.398699,1.041639,0.353343,0.184270,-0.319967,0.047289,-0.175018,0.051761,274.345062,275.439087,25.000000,39.749207,0.706757,-12.937286
461775520.231058,0.013702,-0.177856,-0.850769,-0.530195,0.397658,1.043120,0.421381,0.170249,-0.341495,0.015481,0.076649,0.040471,274.133636,275.227661,25.000000,39.749207,0.432053,-13.335278
461775520.264378,0.067245,-0.142212,-0.896698,-0.526839,0.401499,1.045144,0.476521,0.212942,-0.055109,0.069891,0.156944,-0.042875,273.926300,275.020325,25.000000,39.783661,0.260361,-13.633774
461775520.297640,-0.069351,-0.208694,-0.997177,-0.523803,0.400841,1.043538,0.415043,0.186778,-0.118975,-0.058996,-0.133110,-0.003149,273.633453,274.727478,25.000000,39.955936,-0.048691,-13.799603
461775520.331037,-0.135254,-0.243149,-0.911987,-0.531665,0.400611,1.044629,0.384325,0.212171,-0.337906,0.178446,-0.273825,0.045209,274.096375,275.190399,25.000000,40.438313,0.432053,-13.666939
461775520.364379,-0.125748,-0.242737,-0.911636,-0.532664,0.402325,1.047284,0.341533,0.148822,-0.118963,-0.079343,0.096723,0.041987,274.057251,275.151276,25.000000,40.369404,0.432053,-13.335278
461775520.397673,-0.031845,-0.202423,-0.952454,-0.527446,0.402144,1.048341,0.403787,0.188985,-0.049397,-0.009767,0.196999,0.034200,274.109772,275.203796,25.000000,40.093758,0.500717,-13.136280
461775520.431078,0.092331,-0.122818,-0.970093,-0.521124,0.400689,1.049457,0.473146,0.195732,-0.343508,0.104996,0.138819,0.023517,274.037659,275.131683,25.000000,39.990391,0.397705,-13.169445
461775520.464419,0.084045,-0.158051,-0.805359,-0.521517,0.407325,1.051374,0.569679,0.280889,-0.036502,0.123895,-0.069165,-0.066988,274.273529,275.367554,25.000000,40.024845,0.638077,-13.069950
461775520.497710,0.017105,-0.193619,-0.874695,-0.525027,0.407630,1.050068,0.561088,0.268215,-0.166726,0.071813,-0.143589,-0.030043,274.047699,275.141724,25.000000,40.197124,0.329025,-13.036777
461775520.531079,-0.090729,-0.243652,-1.065659,-0.532838,0.408089,1.050267,0.451189,0.173970,-0.192306,-0.083693,-0.213700,0.036569,274.081024,275.175049,25.000000,40.128216,0.260361,-13.501106
461775520.564368,-0.136490,-0.261154,-1.082275,-0.540907,0.406004,1.051181,0.358629,0.137373,-0.267134,-0.079921,-0.177935,0.071623,273.621735,274.715759,25.000000,40.059303,-0.220383,-13.965431
461775520.597759,-0.115082,-0.218140,-0.823685,-0.544334,0.404919,1.053369,0.339482,0.132791,-0.295981,0.136578,-0.012190,0.038685,273.713623,274.807648,25.000000,39.611385,-0.117371,-14.131268
461775520.631508,-0.040710,-0.154968,-0.838470,-0.542242,0.404158,1.054784,0.462427,0.214488,-0.118950,-0.124341,0.161031,0.080106,273.702271,274.796295,25.000000,39.611385,-0.048691,-13.932270
461775520.664360,0.065598,-0.125336,-1.094391,-0.535644,0.401594,1.054307,0.456589,0.263704,0.006656,-0.164875,0.278447,-0.026296,273.910675,275.004700,25.000000,39.749210,0.157333,-13.733273
461775520.697752,0.007904,-0.130325,-0.990280,-0.530613,0.397527,1.050311,0.474504,0.256814,-0.195039,0.035608,-0.142251,-0.040092,273.899994,274.994019,25.000000,39.852573,0.191681,-13.567440
461775520.731030,-0.122726,-0.216980,-1.067932,-0.536500,0.397978,1.049081,0.380715,0.190015,-0.303175,0.040847,-0.235493,-0.030582,273.510254,274.604279,25.000000,39.783661,-0.151703,-13.501110
461775520.764404,-0.141541,-0.217239,-1.140747,-0.544125,0.397347,1.049558,0.313612,0.162074,-0.285250,-0.083790,-0.162110,0.044596,273.679321,274.773346,25.000000,39.370197,0.054321,-13.567444
461775520.797765,-0.057709,-0.166870,-1.038696,-0.544563,0.396179,1.049553,0.336377,0.168657,-0.351647,-0.036870,0.021702,0.033363,273.733948,274.827972,25.000000,39.714752,0.123001,-13.899101
461775520.831271,0.050827,-0.132812,-0.915863,-0.536469,0.396077,1.049018,0.497689,0.232634,-0.154930,-0.007772,0.243183,-0.061343,273.986603,275.080627,25.000000,39.542477,0.363373,-13.799603
461775520.864416,0.086899,-0.159225,-1.021759,-0.527893,0.396460,1.045652,0.542524,0.268648,-0.075100,-0.107527,0.204234,-0.084898,274.060303,275.154327,25.000000,39.921482,0.535065,-13.567436
461775520.897775,0.056778,-0.110092,-0.988495,-0.523510,0.395569,1.042190,0.538054,0.254169,-0.258443,0.067543,-0.011379,-0.094832,274.636261,275.730286,25.000000,39.473564,0.981461,-13.534275
461775520.930991,-0.054565,-0.225983,-1.039474,-0.527941,0.397956,1.040810,0.435794,0.167259,-0.281769,0.016989,-0.185137,-0.043465,274.864166,275.958191,25.000000,39.611385,1.118820,-13.600605
461775520.964569,-0.153687,-0.232056,-0.900162,-0.536581,0.402956,1.043004,0.335003,0.141483,-0.005962,0.106989,-0.215999,-0.002208,275.162598,276.256622,25.000000,39.266834,1.324844,-13.534275
461775520.997689,-0.125656,-0.189789,-0.984512,-0.538576,0.400105,1.043201,0.337043,0.176518,-0.186410,-0.066733,0.047829,0.073137,274.762421,275.856445,25.000000,39.060101,0.981461,-13.335278
461775521.030165,0.045959,-0.133682,-1.039932,-0.533658,0.397914,1.044627,0.421320,0.253631,-0.242522,-0.014911,0.243989,0.066753,274.794922,275.888947,25.000000,38.922279,0.981461,-13.268944
461775521.064392,0.143661,-0.140640,-0.960846,-0.527903,0.401123,1.047501,0.554941,0.237818,-0.116784,0.162128,0.149463,-0.016354,274.814087,275.908112,25.000000,39.060104,1.050140,-13.202610
461775521.097479,0.074478,-0.137482,-0.884415,-0.528688,0.403544,1.048352,0.584567,0.256846,-0.163530,0.111663,-0.138729,-0.019968,275.323059,276.417084,25.000000,39.301289,1.496536,-13.169449
461775521.131084,-0.103577,-0.187546,-1.071716,-0.536804,0.404394,1.047275,0.422200,0.223006,-0.130606,-0.109959,-0.315762,-0.035758,275.551575,276.645599,25.000000,39.542473,1.599548,-13.335281
461775521.164588,-0.206009,-0.258408,-1.134903,-0.545714,0.404489,1.046706,0.327640,0.194345,-0.233888,0.044596,-0.220508,0.005955,275.600952,276.694977,25.000000,39.508018,1.633896,-13.302113
461775521.197866,-0.135406,-0.234756,-1.070343,-0.547512,0.402664,1.047723,0.316516,0.140314,-0.384266,0.046473,0.096502,0.067497,275.375793,276.469818,25.000000,39.680298,1.462204,-13.467945
461775521.231047,0.041290,-0.187271,-0.979553,-0.542464,0.405297,1.051523,0.410536,0.169316,-0.168115,0.037271,0.267013,0.046208,275.236328,276.330353,25.000000,39.404655,1.393524,-13.467941
461775521.264372,0.064758,-0.177628,-0.978012,-0.534953,0.408549,1.053356,0.502069,0.225495,-0.108872,0.148110,0.198488,-0.049864,275.131927,276.225952,25.000000,39.335743,1.256165,-13.534275
461775521.297872,-0.045654,-0.201218,-1.074661,-0.531923,0.408709,1.051388,0.478051,0.224574,-0.221740,0.030319,-0.096759,-0.052702,274.790894,275.884918,25.000000,39.645840,0.947128,-13.368443
461775521.331032,-0.071304,-0.235321,-1.135422,-0.535481,0.408519,1.050412,0.416783,0.177737,-0.345056,0.029280,-0.100101,0.008325,274.146759,275.240784,25.000000,39.335743,0.226013,-13.865936
461775521.364316,-0.095200,-0.237411,-0.905655,-0.537736,0.412447,1.052689,0.343738,0.137043,-0.121477,0.053850,0.028724,0.010899,274.313934,275.407959,25.000000,39.335743,0.432053,-13.799603
461775521.397719,0.013245,-0.190079,-1.024124,-0.533379,0.411458,1.053433,0.424033,0.190062,-0.119939,-0.031282,0.207213,0.038971,274.666595,275.760620,25.000000,38.853367,0.706757,-13.666935
461775521.431074,0.076630,-0.140411,-1.048782,-0.525373,0.409049,1.053522,0.521103,0.250536,-0.278503,-0.011440,0.238970,0.027827,275.129700,276.223724,25.000000,39.232380,1.221832,-12.904118
461775521.464472,0.111633,-0.176407,-0.909821,-0.520891,0.411990,1.054520,0.573413,0.230176,-0.106934,0.046171,0.075251,-0.015243,275.067535,276.161560,25.000000,39.576931,1.221832,-12.572453
461775521.497705,-0.049011,-0.203903,-0.984482,-0.524340,0.412489,1.055591,0.480700,0.198285,-0.062985,0.026981,-0.198135,0.021496,275.534546,276.628571,25.000000,39.783665,1.633896,-12.705116
461775521.531079,-0.123825,-0.213699,-1.042160,-0.532741,0.409711,1.055948,0.386317,0.191526,-0.251594,-0.067494,-0.251406,0.076206,275.185150,276.279175,25.000000,39.852573,1.153152,-13.103111
461775521.564586,-0.106552,-0.238434,-1.104156,-0.538672,0.407697,1.058009,0.308886,0.132550,-0.235113,-0.051763,-0.057411,0.092700,274.532806,275.626831,25.000000,39.852573,0.672409,-12.904118
461775521.597753,0.018112,-0.161758,-0.983658,-0.537646,0.407180,1.061206,0.394638,0.182185,-0.255283,0.112382,0.120933,0.076317,274.297791,275.391815,25.000000,39.542473,0.638077,-12.406628
461775521.631197,0.043045,-0.124695,-0.950638,-0.533822,0.406800,1.063277,0.518496,0.248746,-0.196583,0.011219,0.127309,0.036440,273.815948,274.909973,25.000000,40.093758,0.363373,-12.141300
461775521.664369,0.040237,-0.173828,-0.982361,-0.532978,0.407197,1.063447,0.528582,0.222347,-0.195302,0.007871,-0.086397,0.003163,273.426422,274.520447,25.000000,40.162670,0.088669,-12.008640
461775521.697681,-0.052017,-0.217560,-1.051636,-0.537564,0.407255,1.062958,0.423978,0.189654,-0.164190,-0.109198,-0.141041,0.012574,273.504028,274.598053,25.000000,40.128216,0.123001,-12.174469
461775521.731108,-0.130783,-0.226913,-1.030304,-0.541450,0.405849,1.063772,0.342730,0.167885,-0.242955,0.084045,-0.104863,0.042978,273.575195,274.669220,25.000000,39.749210,0.226013,-11.875969
461775521.764423,-0.072495,-0.263489,-1.034790,-0.541225,0.405692,1.065739,0.364420,0.138535,-0.241864,0.022465,0.123794,0.063409,273.397461,274.491486,25.000000,39.508022,0.054337,-12.108131
461775521.798039,0.077408,-0.189346,-0.932938,-0.537543,0.407956,1.068702,0.456670,0.143301,-0.135427,0.068351,0.161350,0.012145,272.847168,273.941193,25.000000,39.749210,-0.392059,-11.809635
461775521.831117,0.099319,-0.178696,-0.876404,-0.532541,0.409986,1.068985,0.564967,0.219900,-0.086281,0.088237,0.114328,-0.042136,272.574524,273.668549,25.000000,39.645844,-0.563751,-11.842804
461775521.864426,0.029510,-0.187195,-1.004913,-0.532362,0.409058,1.068232,0.547999,0.204859,-0.210895,-0.037009,-0.098290,0.022468,272.558594,273.652618,25.000000,39.542480,-0.735443,-12.074966
461775521.897701,-0.100632,-0.270706,-1.124435,-0.538707,0.408091,1.068483,0.409968,0.163108,-0.197804,-0.085355,-0.223052,0.045307,272.725983,273.820007,25.000000,39.508026,-0.563751,-12.041798
461775521.931422,-0.145691,-0.249603,-0.994446,-0.545666,0.407080,1.070400,0.345473,0.149073,-0.310026,0.126513,-0.146630,0.057145,273.123383,274.217407,25.000000,39.611393,-0.323380,-12.406628
461775521.964488,-0.032501,-0.224869,-1.077805,-0.545541,0.405798,1.072623,0.388591,0.126960,-0.263283,-0.071141,0.150179,0.084398,273.286865,274.380890,25.000000,39.990395,-0.151703,-12.373463
461775521.997686,0.110916,-0.150040,-0.978607,-0.538503,0.404929,1.073440,0.518314,0.228274,-0.219065,-0.015550,0.259928,0.001988,273.595276,274.689301,25.000000,40.197124,0.123001,-12.705124
461775522.031122,0.103836,-0.164108,-0.896896,-0.532386,0.406381,1.072594,0.572330,0.257013,-0.130280,0.029506,0.097359,-0.065590,273.627625,274.721649,25.000000,40.713955,0.157333,-12.671955
461775522.064397,-0.002960,-0.192001,-0.894379,-0.533392,0.405712,1.070741,0.571017,0.230565,-0.105711,-0.052050,-0.162209,-0.022145,274.003235,275.097260,25.000000,40.403858,0.397705,-12.837788
461775522.097209,-0.099091,-0.185730,-0.940399,-0.539875,0.402788,1.067976,0.442344,0.240968,-0.206082,-0.139087,-0.230373,0.008370,274.020477,275.114502,25.000000,39.990395,0.329025,-12.970448
461775522.131046,-0.117584,-0.198349,-0.985550,-0.545908,0.401329,1.068185,0.348058,0.187914,-0.099239,-0.030726,-0.126369,0.041103,273.980591,275.074615,25.000000,40.162670,0.363373,-13.003616
461775522.164355,-0.078018,-0.175781,-1.085129,-0.546625,0.397884,1.068298,0.361617,0.189120,-0.198001,-0.090918,0.048307,0.065743,273.810760,274.904785,25.000000,40.472767,0.329025,-12.904118
461775522.197725,0.021103,-0.142456,-0.973969,-0.545421,0.396071,1.068722,0.457833,0.248102,-0.331667,0.036071,0.046137,-0.001586,273.456665,274.550690,25.000000,40.472767,0.054321,-13.036781
461775522.231091,0.013184,-0.142807,-0.926880,-0.544567,0.397250,1.067484,0.551391,0.252454,-0.228269,-0.076199,-0.028558,-0.063921,273.699158,274.793182,25.000000,40.128212,0.329025,-12.970448
461775522.264409,-0.050674,-0.158249,-1.042511,-0.547456,0.397953,1.064804,0.493025,0.244725,-0.139752,-0.047219,-0.176041,-0.079310,274.047974,275.141998,25.000000,40.197124,0.603745,-13.036781
461775522.298256,-0.128922,-0.173157,-0.949036,-0.554207,0.396132,1.059527,0.353039,0.210133,-0.177292,-0.023529,-0.141660,-0.056291,274.374084,275.468109,25.000000,40.231583,0.912781,-13.069950
461775522.330654,-0.060242,-0.191666,-1.013489,-0.554534,0.395508,1.058259,0.364728,0.217751,-0.209427,-0.084868,-0.007469,-0.030036,274.240417,275.334442,25.000000,40.093761,0.706757,-13.202614
461775522.364379,0.020889,-0.176117,-1.078293,-0.548823,0.395006,1.056717,0.456730,0.208239,-0.265917,0.005845,0.150509,-0.016276,273.984436,275.078461,25.000000,40.266037,0.603745,-13.036785
461775522.397382,0.062225,-0.200073,-0.944260,-0.546365,0.398497,1.057497,0.535300,0.198626,-0.118794,0.068396,0.028579,-0.043864,274.269897,275.363922,25.000000,41.161869,1.015793,-12.837788
461775522.431074,-0.055542,-0.187256,-0.900574,-0.548837,0.398722,1.056572,0.503050,0.215527,-0.180648,0.040121,-0.174808,-0.027405,274.261230,275.355255,25.000000,41.471966,0.844101,-12.472961
461775522.464378,-0.100220,-0.184433,-1.018204,-0.555537,0.397563,1.055336,0.398940,0.199871,-0.186724,-0.090599,-0.205868,0.019487,274.090698,275.184723,25.000000,41.092960,0.741089,-12.705120
461775522.497709,-0.138123,-0.160934,-0.970459,-0.559712,0.396855,1.056323,0.336922,0.181945,-0.124885,-0.019831,-0.031767,0.047574,273.496307,274.590332,25.000000,40.748405,0.191681,-13.036781
461775522.531001,-0.018402,-0.144714,-1.017258,-0.556567,0.394845,1.056999,0.413988,0.221152,-0.231531,0.018318,0.177889,0.042117,273.412079,274.506104,25.000000,40.817318,0.123001,-13.368443
461775522.564427,0.070862,-0.154892,-1.086411,-0.550839,0.394899,1.057893,0.514384,0.251536,-0.284082,0.020630,0.184968,-0.007957,273.340546,274.434570,25.000000,41.024052,0.123001,-13.434776
461775522.597753,0.075974,-0.183731,-0.965561,-0.548400,0.398903,1.058859,0.573639,0.212397,-0.200853,0.098264,-0.005832,-0.049383,273.875916,274.969940,25.000000,40.713955,0.569397,-13.401611
461775522.630426,-0.092133,-0.191895,-1.031403,-0.552593,0.400971,1.058236,0.517458,0.217660,-0.163673,0.016442,-0.212863,-0.049166,273.954987,275.049011,25.000000,40.610588,0.603745,-13.434776
461775522.664476,-0.151031,-0.197952,-1.029114,-0.561405,0.398871,1.056624,0.339553,0.190426,-0.249057,0.006407,-0.089707,0.021513,273.824860,274.918884,25.000000,40.231583,0.294693,-13.799603
461775522.697772,-0.066605,-0.185089,-1.050003,-0.561209,0.398376,1.056764,0.330072,0.188429,-0.228946,-0.031321,0.055322,0.029540,273.524536,274.618561,25.000000,39.645844,-0.014359,-13.965435
461775522.731056,0.080307,-0.163651,-1.028168,-0.555842,0.399317,1.058297,0.457796,0.194545,-0.215374,0.100394,0.238734,0.015299,273.444061,274.538086,25.000000,39.576935,0.054321,-13.501110
461775522.764505,0.068619,-0.164658,-0.960281,-0.548296,0.402760,1.059186,0.557483,0.223166,-0.119308,0.007083,0.043632,-0.056672,273.564301,274.658325,25.000000,39.060104,0.157333,-13.401615
461775522.797720,-0.043472,-0.169022,-0.898056,-0.550475,0.401747,1.056889,0.491926,0.226736,-0.160132,-0.047377,-0.169510,-0.048860,273.308777,274.402802,25.000000,39.335743,-0.186050,-13.467945
461775522.831017,-0.142502,-0.197998,-1.039932,-0.555499,0.398058,1.054215,0.350668,0.193522,-0.264536,-0.143209,-0.141641,0.030652,274.250000,275.344025,25.000000,39.232376,0.603745,-13.832767
461775522.864333,-0.056061,-0.197144,-1.073776,-0.556745,0.396944,1.055357,0.306217,0.175924,-0.143606,-0.017738,0.083676,0.044006,274.506683,275.600708,25.000000,39.611385,0.775436,-13.932266
461775522.897681,0.025803,-0.158203,-0.991119,-0.549904,0.395792,1.056214,0.479778,0.219264,-0.291584,0.106454,0.275678,0.023522,274.717255,275.811279,25.000000,39.576931,1.015793,-14.031761
461775522.931034,0.127258,-0.127350,-0.910126,-0.542289,0.398374,1.056948,0.562720,0.270962,-0.133639,0.014055,0.214307,-0.054654,274.407623,275.501648,25.000000,39.576931,0.741089,-14.098095
461775522.964438,0.025009,-0.116653,-0.926254,-0.539544,0.399301,1.056193,0.600589,0.261424,-0.119675,0.016748,0.103743,-0.073052,274.226654,275.320679,25.000000,39.645840,0.535065,-14.297092
461775522.997671,-0.048019,-0.156189,-1.015579,-0.544580,0.397887,1.052591,0.458958,0.228719,-0.152238,-0.100770,-0.277111,-0.037217,274.171356,275.265381,25.000000,39.818115,0.500717,-13.865936
461775523.031078,-0.158188,-0.186783,-0.910187,-0.553352,0.396546,1.051786,0.395222,0.208287,-0.270641,0.063963,-0.239474,0.024668,274.280426,275.374451,25.000000,40.369404,0.775436,-13.335281
461775523.064346,-0.074615,-0.154480,-0.953873,-0.556898,0.396336,1.052775,0.331409,0.207711,-0.135867,-0.047594,0.013898,0.034712,274.166870,275.260895,25.000000,40.197128,0.741089,-13.169453
461775523.097726,-0.016525,-0.144104,-1.009354,-0.553364,0.395438,1.053500,0.440545,0.241520,-0.167011,-0.014253,0.146256,0.028768,274.555328,275.649353,25.000000,40.162674,1.118820,-13.335278
461775523.131004,0.060944,-0.154465,-1.028183,-0.548912,0.395190,1.053577,0.531165,0.241902,-0.299071,0.068017,0.087910,-0.024923,274.216064,275.310089,25.000000,39.266834,0.638077,-13.865932
461775523.164419,-0.056396,-0.174103,-0.909988,-0.549951,0.397642,1.053079,0.550470,0.239373,-0.243860,0.029766,-0.129308,-0.055992,274.260925,275.354950,25.000000,39.508022,0.809769,-13.302113
461775523.197715,-0.113281,-0.172653,-0.986176,-0.555774,0.398844,1.051600,0.429794,0.214251,-0.127173,-0.067213,-0.224472,-0.033824,274.285675,275.379700,25.000000,39.094563,0.809769,-13.103115
461775523.231044,-0.138901,-0.151520,-1.006943,-0.560103,0.398246,1.050552,0.311322,0.214264,-0.142470,0.009800,-0.067632,-0.015277,274.722809,275.816833,25.000000,39.163471,1.153152,-13.235783
461775523.264390,0.034470,-0.177750,-1.016205,-0.556107,0.396510,1.049328,0.409703,0.206819,-0.321848,-0.039492,0.227431,0.016786,274.644379,275.738403,25.000000,38.818920,0.947128,-13.965435
461775523.297715,0.133011,-0.193054,-0.987915,-0.548974,0.400223,1.051222,0.515045,0.211874,-0.230558,0.141141,0.234904,-0.038029,274.534882,275.628906,25.000000,39.232380,0.947128,-13.766438
461775523.330575,0.019424,-0.191360,-0.940323,-0.544789,0.404749,1.051980,0.588197,0.195851,-0.161589,0.115403,0.020165,-0.054386,274.538361,275.632385,25.000000,39.645844,0.947128,-13.567440
461775523.364381,-0.113983,-0.189957,-1.009796,-0.551830,0.404349,1.050067,0.414359,0.185641,-0.180667,-0.050987,-0.219354,-0.005689,274.062134,275.156158,25.000000,39.887028,0.569412,-13.268944
461775523.397711,-0.146561,-0.223907,-0.930527,-0.555701,0.404185,1.051073,0.338471,0.169362,-0.149448,0.092027,-0.003681,0.037178,273.861053,274.955078,25.000000,39.783665,0.260361,-13.633770
461775523.431077,0.024200,-0.170959,-1.104218,-0.551873,0.403271,1.052351,0.460986,0.196018,-0.306471,-0.029440,0.230133,0.053441,273.265778,274.359802,25.000000,39.852573,-0.083023,-13.103115
461775523.464377,0.167892,-0.163605,-1.058365,-0.544485,0.405475,1.055135,0.537409,0.201310,-0.213981,0.058981,0.225829,0.012679,273.800354,274.894379,25.000000,39.749210,0.363388,-13.202614
461775523.497673,0.128159,-0.207718,-0.902573,-0.541169,0.408839,1.056259,0.622676,0.211708,-0.201708,0.160280,0.004070,-0.059979,274.057068,275.151093,25.000000,39.508022,0.603745,-13.036785
461775523.531093,-0.068726,-0.183578,-0.923172,-0.546191,0.408068,1.054990,0.459054,0.231126,-0.193301,-0.048572,-0.239054,-0.032312,274.238037,275.332062,25.000000,39.542477,0.569412,-13.401611
461775523.564368,-0.144028,-0.195114,-1.029877,-0.553927,0.406340,1.053374,0.346663,0.208116,-0.200368,-0.115737,-0.222432,0.034111,273.654449,274.748474,25.000000,39.576931,-0.014343,-13.501106
461775523.598040,0.000214,-0.166458,-1.028763,-0.556080,0.404568,1.054729,0.338153,0.180761,-0.228938,0.005865,0.074289,0.068690,273.706085,274.800110,25.000000,39.680298,0.157349,-13.136280
461775523.631115,0.038956,-0.135025,-0.792130,-0.551388,0.405817,1.057866,0.481535,0.228311,-0.246148,0.197410,0.222879,0.019872,273.342804,274.436829,25.000000,39.749210,-0.048676,-13.003620
461775523.664404,0.040344,-0.153397,-0.865280,-0.543974,0.407355,1.058403,0.547289,0.257861,-0.006396,-0.131388,0.046460,0.027658,273.359741,274.453766,25.000000,40.197128,0.054337,-12.837788
461775523.697722,-0.080856,-0.157501,-1.174820,-0.548238,0.402381,1.056597,0.493138,0.285623,-0.302931,-0.104483,-0.266642,0.021223,273.396881,274.490906,25.000000,40.334949,-0.014343,-13.103115
461775523.730987,-0.098953,-0.193283,-1.183182,-0.556309,0.402102,1.056448,0.386985,0.198071,-0.401705,0.041276,-0.219510,0.008447,273.252991,274.347015,25.000000,40.093758,-0.254715,-13.202610
461775523.764423,-0.113190,-0.209045,-0.850067,-0.561607,0.406498,1.059659,0.361984,0.182810,-0.072044,0.105659,-0.015936,0.017899,272.832947,273.926971,25.000000,39.955936,-0.392059,-13.069950
461775523.797685,0.001740,-0.153854,-0.987137,-0.558393,0.404776,1.059600,0.475993,0.266570,-0.225631,-0.014566,0.184599,0.008882,272.628174,273.722198,25.000000,39.818119,-0.529419,-12.804623
461775523.831113,0.121674,-0.125198,-1.159805,-0.551719,0.403930,1.058002,0.531836,0.251494,-0.289299,-0.053338,0.159949,-0.042409,273.287354,274.381378,25.000000,40.334949,0.123001,-12.638794
461775523.864475,0.114517,-0.172455,-1.116135,-0.549740,0.406564,1.057787,0.619571,0.272013,-0.321901,0.210964,0.089609,-0.118990,273.729340,274.823364,25.000000,40.266037,0.466385,-12.439793
461775523.897694,-0.051849,-0.233093,-0.843216,-0.555876,0.409131,1.055605,0.562948,0.193360,-0.531612,0.284334,-0.305716,-0.086429,273.617920,274.711945,25.000000,39.576931,0.191681,-12.970448
461775523.931137,-0.078171,-0.210922,-0.921844,-0.568033,0.414579,1.056757,0.402374,0.160175,-0.085002,-0.035956,-0.335812,-0.037321,273.203644,274.297668,25.000000,39.508018,-0.220383,-12.771454
461775523.964402,-0.198990,-0.236740,-0.859024,-0.575225,0.415326,1.056489,0.357606,0.161118,-0.000071,-0.053675,-0.131641,0.030051,273.336792,274.430817,25.000000,39.370201,-0.151703,-13.302113
461775523.997767,-0.005997,-0.183685,-1.126892,-0.573380,0.408645,1.054560,0.396611,0.154355,-0.380665,-0.191446,0.168627,0.066267,273.489166,274.583191,25.000000,39.818119,0.019989,-13.069950
461775524.031075,-0.023926,-0.191162,-0.777771,-0.568051,0.410146,1.057152,0.477318,0.213929,-0.186235,0.247292,0.160064,-0.014476,273.582611,274.676636,25.000000,39.439110,0.123001,-13.103115
461775524.064393,-0.120773,-0.194168,-0.834427,-0.564467,0.412025,1.057475,0.458579,0.230345,0.128309,-0.145239,0.061336,0.009128,273.159149,274.253174,25.000000,39.576927,-0.220383,-13.036781
461775524.097712,0.000076,-0.118805,-1.233887,-0.562482,0.401877,1.053407,0.357331,0.223391,-0.270230,-0.330672,-0.010982,0.080435,273.313721,274.407745,25.000000,39.576927,-0.220383,-13.501110
461775524.131223,0.039062,-0.203506,-0.904861,-0.562144,0.404184,1.055173,0.497501,0.244603,-0.236681,0.305980,0.065168,-0.054541,273.368378,274.462402,25.000000,40.093754,-0.117371,-13.467945
461775524.164332,0.077103,-0.272629,-1.216568,-0.559945,0.407068,1.055807,0.585196,0.180846,-0.239239,-0.055513,0.052311,-0.012035,273.433807,274.527832,25.000000,40.162666,0.226013,-12.937290
461775524.197714,0.067215,-0.202667,-1.096756,-0.560215,0.404606,1.053526,0.537232,0.125605,-0.500175,-0.115077,-0.108322,-0.036510,273.318451,274.412476,25.000000,40.541676,0.054321,-12.439793
461775524.231185,-0.073471,-0.171646,-0.687531,-0.563077,0.406737,1.051041,0.551384,0.212417,-0.168257,0.081815,-0.113166,-0.086198,273.409119,274.503143,25.000000,40.266037,0.123001,-12.572456
461775524.264387,-0.124451,-0.158783,-0.633514,-0.565773,0.407403,1.050486,0.418722,0.224580,0.087551,-0.055296,-0.037266,-0.009920,273.710785,274.804810,25.000000,40.059303,0.260361,-13.235779
461775524.297664,-0.188095,-0.151764,-0.982681,-0.563714,0.403828,1.048232,0.345491,0.234769,0.131549,-0.198910,0.076531,0.019593,274.450409,275.544434,25.000000,39.749207,0.844101,-13.534275
461775524.331144,0.044678,-0.124359,-1.368118,-0.553080,0.386731,1.042134,0.393192,0.220226,-0.590762,-0.253909,0.215795,0.081227,274.805786,275.899811,25.000000,40.059303,1.153152,-13.633774
461775524.364377,0.088943,-0.140564,-0.887970,-0.547421,0.392174,1.045511,0.555831,0.242473,-0.346072,0.445323,0.188543,-0.059561,274.644592,275.738617,25.000000,40.024849,1.050140,-13.268944
461775524.397710,0.045105,-0.138702,-0.546005,-0.545089,0.401127,1.049420,0.598583,0.239989,0.194326,0.103027,0.003928,0.009205,274.068207,275.162231,25.000000,39.990395,0.809769,-13.036781
461775524.431020,-0.137863,-0.092972,-1.054016,-0.549496,0.392252,1.046516,0.393481,0.258797,-0.046789,-0.495901,-0.300914,0.083327,274.019348,275.113373,25.000000,39.818115,0.569397,-13.003616
461775524.464389,-0.215210,-0.068619,-1.021317,-0.555971,0.382218,1.042185,0.299163,0.279794,-0.231527,-0.214554,-0.131773,0.052071,273.588470,274.682495,25.000000,40.128212,0.191681,-12.837788
461775524.497708,-0.019455,-0.138397,-1.324905,-0.552908,0.374585,1.040108,0.397456,0.255123,-0.430207,-0.140398,0.196964,0.083523,273.551300,274.645325,25.000000,40.576130,0.363373,-12.937286
461775524.531041,0.229416,-0.114624,-0.927628,-0.544740,0.375190,1.043105,0.540072,0.233560,-0.556801,0.210930,0.266231,0.024517,273.137268,274.231293,25.000000,40.989597,0.432053,-12.605625
461775524.564417,0.200745,-0.093491,-0.503204,-0.540187,0.390247,1.048400,0.701978,0.265809,0.132427,0.509936,0.130074,-0.164606,273.996918,275.090942,25.000000,41.127415,1.256149,-12.671959
461775524.597843,-0.011154,-0.066925,-0.948486,-0.541426,0.390662,1.044967,0.594389,0.332568,0.219303,-0.404082,-0.272541,-0.038256,275.033295,276.127319,25.000000,40.920685,2.011597,-12.605625
461775524.631017,-0.217819,-0.129227,-1.039780,-0.552396,0.381416,1.037958,0.428122,0.289761,-0.244938,-0.192612,-0.548153,-0.009468,275.498169,276.592194,25.000000,40.817318,1.977264,-13.235779
461775524.664465,-0.211197,-0.200653,-1.094986,-0.571035,0.381274,1.038874,0.290493,0.171451,-0.314060,0.143444,-0.197188,0.039624,275.119110,276.213135,25.000000,40.610584,1.702560,-13.235779
461775524.697746,-0.190063,-0.142365,-1.049210,-0.571091,0.382803,1.042158,0.203421,0.179873,-0.161628,-0.064219,0.118093,0.070277,274.098663,275.192688,25.000000,40.403854,0.947113,-13.633774
461775524.731124,-0.056763,-0.147125,-0.973969,-0.568488,0.381035,1.042752,0.383948,0.225199,-0.379512,-0.034421,0.203982,0.091609,273.900055,274.994080,25.000000,40.059303,0.878433,-13.501106
461775524.764379,0.070862,-0.112640,-0.914795,-0.557862,0.385136,1.048199,0.561457,0.263045,-0.128553,0.138408,0.263931,-0.023570,273.781036,274.875061,25.000000,40.162670,0.706741,-13.733269
461775524.797748,0.055603,-0.077621,-1.019852,-0.551446,0.385619,1.047627,0.559710,0.279606,-0.122509,-0.101910,0.101935,-0.015227,273.855499,274.949524,25.000000,40.059303,0.878433,-13.235779
461775524.831040,0.071976,-0.181824,-1.229691,-0.550015,0.385736,1.046574,0.517389,0.311193,-0.273006,0.012750,0.048312,-0.076038,274.323944,275.417969,25.000000,40.197124,1.221817,-13.434772
461775524.864368,0.051758,-0.214020,-1.108627,-0.549261,0.388889,1.045850,0.555051,0.197336,-0.440466,0.197558,-0.029755,-0.060427,274.851746,275.945770,25.000000,40.438313,1.668213,-13.202610
461775524.897739,-0.038834,-0.228271,-0.836792,-0.555282,0.402106,1.049878,0.468060,0.148162,-0.132225,0.206473,-0.115730,-0.065602,274.457062,275.551086,25.000000,40.748409,1.221817,-13.501106
461775524.931129,-0.131653,-0.212463,-0.874985,-0.557083,0.404783,1.049960,0.414132,0.171575,0.022670,-0.046757,0.009751,0.004415,274.322235,275.416260,25.000000,40.472767,0.947113,-13.633770
461775524.964444,-0.095734,-0.155045,-1.040817,-0.555969,0.401190,1.049954,0.358556,0.211299,-0.183127,-0.074168,0.079044,0.068205,274.368408,275.462433,25.000000,40.438313,0.912766,-13.600605
461775524.997694,-0.012878,-0.173141,-0.784454,-0.551863,0.403781,1.053721,0.472699,0.242859,-0.109738,0.280859,0.195041,0.029501,274.706299,275.800323,25.000000,40.162666,1.118805,-13.733265
461775525.031114,0.145264,-0.144791,-1.207886,-0.547115,0.406917,1.057166,0.548562,0.245466,-0.057641,-0.074354,0.160052,0.069837,274.462067,275.556091,25.000000,39.852573,1.084457,-12.904118
461775525.064330,0.038971,-0.135742,-0.755890,-0.547485,0.404366,1.059320,0.623596,0.228854,-0.494458,0.170664,-0.108676,0.054867,274.728455,275.822479,25.000000,39.818119,1.256149,-12.870953
461775525.096777,-0.078964,-0.218185,-0.715240,-0.554251,0.412682,1.062603,0.521093,0.265326,0.023021,0.153046,-0.225906,-0.077083,274.668884,275.762909,25.000000,39.783665,1.221817,-12.572460
461775525.131074,-0.249313,-0.159180,-1.231201,-0.562075,0.407093,1.059455,0.340814,0.232505,-0.263054,-0.347602,-0.300020,0.078458,274.909058,276.003082,25.000000,40.024853,1.324829,-13.003620
461775525.164372,0.013702,-0.174942,-1.033585,-0.565084,0.400565,1.058435,0.236507,0.225769,-0.467793,-0.035574,0.082532,0.048970,275.006134,276.100159,25.000000,40.197128,1.427841,-13.235783
461775525.197771,0.075317,-0.200089,-0.940811,-0.558932,0.406368,1.062713,0.500799,0.220334,-0.254807,0.330258,0.327146,-0.025093,275.003754,276.097778,25.000000,40.334949,1.496521,-13.169449
461775525.231067,0.130157,-0.098663,-0.809738,-0.550812,0.409731,1.063572,0.611711,0.199739,-0.276871,0.021225,0.171267,-0.060062,274.760162,275.854187,25.000000,40.369404,1.324829,-13.003620
461775525.264386,-0.070663,-0.073181,-0.916275,-0.548936,0.416816,1.061392,0.568552,0.316503,0.138501,0.062586,-0.086078,-0.181625,274.780975,275.875000,25.000000,40.059307,1.084457,-13.103115
461775525.297790,-0.162460,-0.098587,-1.184448,-0.554382,0.407064,1.049994,0.320942,0.297328,-0.403696,-0.238189,-0.232075,0.026157,274.850372,275.944397,25.000000,39.921486,1.084457,-13.036781
461775525.331267,-0.011978,-0.084442,-1.248276,-0.560891,0.405704,1.051869,0.370703,0.333341,-0.550280,0.161907,-0.083960,0.063120,275.171143,276.265167,25.000000,39.714752,1.290497,-13.235779
461775525.364379,0.025558,-0.083542,-0.493607,-0.560635,0.417481,1.061090,0.472628,0.244662,0.009591,0.497749,0.196484,-0.009064,274.804443,275.898468,25.000000,40.059303,1.221817,-13.302113
461775525.397700,0.087189,-0.019592,-0.634781,-0.554382,0.419371,1.061050,0.549634,0.364812,0.244155,-0.269322,0.189953,-0.042922,274.662720,275.756744,25.000000,39.852573,1.084457,-13.302113
461775525.430995,0.007736,-0.052338,-1.147583,-0.547841,0.409952,1.052654,0.505688,0.357794,-0.245678,-0.312466,-0.040635,-0.054374,274.511475,275.605499,25.000000,39.473568,0.706741,-13.401611
461775525.464413,-0.063950,-0.200577,-1.350082,-0.553774,0.408817,1.047314,0.463031,0.326480,-0.561923,0.091942,-0.303096,-0.137730,274.569366,275.663391,25.000000,39.404659,0.775421,-13.467945
461775525.497670,-0.134720,-0.267120,-1.061768,-0.569907,0.420334,1.051486,0.386783,0.158859,-0.464935,0.505323,-0.423505,-0.045528,274.958618,276.052643,25.000000,39.645847,1.221817,-13.633774
461775525.531053,-0.102066,-0.267059,-0.927292,-0.580175,0.427814,1.058462,0.328860,0.082470,-0.232938,0.244325,-0.135797,0.049670,274.712250,275.806274,25.000000,39.576935,0.947113,-13.434776
461775525.564426,-0.017548,-0.221939,-0.867416,-0.580919,0.434021,1.062680,0.459015,0.169790,-0.125796,0.139806,0.174706,-0.034745,274.597931,275.691956,25.000000,39.094563,0.672409,-13.700108
461775525.597754,-0.012436,-0.174469,-0.953873,-0.570592,0.436393,1.060240,0.450234,0.204579,-0.129136,-0.080355,0.311349,-0.140271,274.438568,275.532593,25.000000,39.266834,0.432037,-13.666939
461775525.631116,-0.011002,-0.152603,-1.029968,-0.559811,0.436399,1.054246,0.479229,0.301570,-0.251071,-0.016488,0.203078,-0.137484,274.668976,275.763000,25.000000,39.749210,0.638062,-13.666939
461775525.664346,0.046906,-0.232407,-1.070053,-0.556377,0.443567,1.052803,0.484239,0.252070,-0.338030,0.283549,-0.022532,-0.076821,274.481384,275.575409,25.000000,39.783665,0.466370,-13.302113
461775525.696998,0.027878,-0.260651,-0.877045,-0.559389,0.454468,1.057653,0.504680,0.178334,-0.115499,0.335951,-0.032533,-0.075085,273.964752,275.058777,25.000000,39.887028,-0.048706,-13.401611
461775525.731101,0.065186,-0.227036,-0.758911,-0.558583,0.457857,1.057773,0.557536,0.193965,0.026792,-0.063103,0.058027,-0.003395,273.921387,275.015411,25.000000,39.783665,-0.151718,-13.368443
461775525.764413,-0.028122,-0.120697,-1.025543,-0.557413,0.453013,1.056131,0.446551,0.299036,-0.119770,-0.243535,-0.015640,0.065502,273.650574,274.744598,25.000000,39.783665,-0.563766,-13.501106
461775525.797690,-0.064972,-0.202438,-0.976013,-0.557342,0.448830,1.056593,0.413953,0.246839,-0.416239,0.128084,-0.001347,0.069420,273.987579,275.081604,25.000000,39.542477,-0.460754,-13.932266
461775525.831285,-0.027557,-0.232941,-0.804596,-0.561247,0.456234,1.062746,0.428472,0.229709,-0.110604,0.266355,-0.010864,0.014450,273.806396,274.900421,25.000000,39.542477,-0.598099,-13.865932
461775525.864428,0.004562,-0.169083,-1.200333,-0.562730,0.457196,1.065600,0.426565,0.161206,-0.093408,-0.095134,-0.013858,0.065399,274.051758,275.145782,25.000000,39.680298,-0.186050,-13.733273
461775525.897740,0.002930,-0.253189,-1.066803,-0.563261,0.455702,1.066484,0.531766,0.225844,-0.631131,0.176576,-0.021440,0.018762,273.966125,275.060150,25.000000,40.093761,-0.254715,-13.069950
461775525.931264,0.013412,-0.232941,-0.811356,-0.567894,0.466659,1.071193,0.474993,0.216674,-0.139424,0.283574,-0.093810,-0.110243,274.121613,275.215637,25.000000,39.990395,-0.151703,-13.501110
461775525.964378,-0.118393,-0.258575,-0.899399,-0.568253,0.469024,1.070160,0.461139,0.209584,-0.010963,-0.079288,0.002790,-0.026136,273.977112,275.071136,25.000000,39.852573,-0.357742,-13.434772
461775525.997744,-0.022537,-0.260254,-1.230789,-0.566785,0.465193,1.066745,0.369927,0.240175,-0.376220,-0.123006,0.026283,-0.030364,274.186218,275.280243,25.000000,39.783661,-0.220383,-13.302113
461775526.031016,0.057465,-0.283325,-1.180328,-0.561653,0.465541,1.065244,0.490633,0.157906,-0.474425,0.103556,0.181038,-0.044815,274.161743,275.255768,25.000000,39.990391,-0.151703,-12.904118
461775526.064548,0.054306,-0.223892,-0.610458,-0.556852,0.472623,1.067484,0.566023,0.192834,-0.151365,0.278128,0.115003,-0.087947,274.181702,275.275726,25.000000,40.507221,-0.048706,-12.870953
461775526.097714,-0.034134,-0.181320,-0.881378,-0.555171,0.474356,1.067489,0.489552,0.212259,0.162078,-0.202643,0.018419,0.030124,274.641724,275.735748,25.000000,40.472767,0.260345,-13.103115
461775526.131113,-0.053314,-0.153351,-0.902969,-0.553199,0.466896,1.064323,0.422195,0.275357,-0.139419,-0.165210,0.002265,0.024471,274.600067,275.694092,25.000000,40.403858,0.054306,-13.169449
461775526.163827,0.037476,-0.230530,-1.170456,-0.550971,0.462793,1.063204,0.463304,0.265160,-0.235914,-0.110434,0.095491,0.061782,274.804962,275.898987,25.000000,40.679501,0.191650,-13.567444
461775526.197720,0.106827,-0.208542,-1.000076,-0.548836,0.461037,1.064856,0.535142,0.223350,-0.454966,0.092972,0.025784,0.050611,274.113922,275.207947,25.000000,41.024052,-0.357758,-13.633774
461775526.231121,0.069595,-0.198074,-0.926849,-0.551845,0.465381,1.068944,0.575331,0.240222,-0.239080,0.138026,-0.094744,0.031446,273.893311,274.987335,25.000000,40.748413,-0.426437,-13.434776
461775526.264384,-0.039322,-0.158905,-0.973129,-0.559155,0.466308,1.070479,0.477374,0.276221,-0.071308,-0.030054,-0.251214,0.004880,273.732697,274.826721,25.000000,40.541679,-0.563797,-13.368443
461775526.297692,-0.102997,-0.176880,-0.877548,-0.564928,0.463158,1.069064,0.426799,0.320494,-0.225849,-0.041458,-0.159058,0.016075,273.975983,275.070007,25.000000,40.851776,-0.460770,-13.865936
461775526.330958,-0.023529,-0.200592,-1.121582,-0.561839,0.459171,1.067284,0.454033,0.242613,-0.362963,-0.114490,0.171532,0.040284,273.895691,274.989716,25.000000,41.196327,-0.392105,-13.467941
461775526.364491,0.051910,-0.269913,-1.094070,-0.558439,0.461058,1.069492,0.485614,0.213588,-0.370416,0.166122,0.093889,-0.011699,273.748230,274.842255,25.000000,41.368603,-0.426437,-13.368443
461775526.397713,0.044907,-0.234268,-0.716537,-0.557111,0.466644,1.071745,0.544273,0.162187,-0.157994,0.174837,0.039614,-0.055012,273.543518,274.637543,25.000000,41.092960,-0.426437,-12.837788
461775526.431303,0.007935,-0.185898,-0.834610,-0.556543,0.466005,1.069428,0.500277,0.247951,0.026569,-0.201573,-0.008825,-0.023246,272.859161,273.953186,25.000000,41.609791,-1.147537,-13.069950
461775526.463483,-0.084244,-0.222900,-1.050278,-0.555717,0.462800,1.066749,0.393169,0.241789,-0.229817,-0.049384,-0.014376,-0.014707,273.237976,274.332001,25.000000,41.506424,-0.907166,-13.368443
461775526.497715,0.069595,-0.276184,-1.223572,-0.554046,0.463420,1.066118,0.478133,0.222889,-0.430910,0.086184,0.085649,-0.026825,273.385986,274.480011,25.000000,41.265236,-0.598114,-13.335278
461775526.530983,0.153824,-0.219559,-0.982788,-0.552912,0.468363,1.068455,0.563475,0.182291,-0.452286,0.193484,0.039656,-0.045067,274.295471,275.389496,25.000000,41.024052,0.260330,-13.501110
461775526.564377,0.108093,-0.209320,-0.735062,-0.552433,0.474541,1.068670,0.620599,0.237371,-0.225599,0.128518,0.010189,-0.101391,274.678711,275.772736,25.000000,41.092960,0.466354,-13.169453
461775526.597782,0.002045,-0.178558,-0.936493,-0.551902,0.473017,1.065122,0.525438,0.284355,-0.015194,-0.265287,-0.004798,-0.026169,275.119843,276.213867,25.000000,41.437515,0.672394,-13.501110
461775526.631023,-0.007111,-0.211090,-0.936050,-0.549757,0.469013,1.061665,0.439708,0.277827,-0.132519,-0.034577,0.006466,-0.019638,275.529480,276.623505,25.000000,40.955143,0.878418,-13.368443
461775526.664348,0.037857,-0.252258,-1.069504,-0.544202,0.465841,1.061202,0.500425,0.196916,-0.305126,-0.038386,0.150523,0.063080,275.174591,276.268616,25.000000,41.024052,0.535034,-13.567440
461775526.697741,0.113083,-0.268478,-1.240601,-0.544493,0.466376,1.064997,0.593952,0.206305,-0.594101,0.273965,-0.092657,0.063011,274.985474,276.079498,25.000000,41.368607,0.535034,-13.235783
461775526.731087,0.009857,-0.209198,-0.685883,-0.555528,0.477023,1.072599,0.525692,0.218307,-0.022065,0.248190,-0.322243,0.024840,274.625122,275.719147,25.000000,41.299694,0.191650,-13.501110
461775526.764421,-0.062546,-0.178772,-0.881500,-0.561488,0.477105,1.073738,0.482845,0.250011,0.066055,-0.052231,-0.320655,0.066450,274.521515,275.615540,25.000000,40.576130,-0.048721,-13.733273
461775526.797987,-0.069122,-0.131363,-1.014832,-0.566544,0.470211,1.073381,0.379960,0.349040,-0.274085,-0.030941,0.117163,0.028090,275.088348,276.182373,25.000000,40.610584,0.397690,-13.832767
461775526.831103,0.050735,-0.190781,-0.941544,-0.557594,0.470967,1.073002,0.498744,0.261319,-0.225187,0.045691,0.332508,-0.027152,275.130981,276.225006,25.000000,40.507221,0.500702,-13.600605
461775526.864430,0.073135,-0.199844,-1.055664,-0.549466,0.471050,1.072439,0.540278,0.272578,-0.226249,-0.034853,0.169876,0.014114,275.378693,276.472717,25.000000,40.920685,0.844086,-13.600605
461775526.897717,0.064178,-0.152817,-1.044281,-0.547847,0.470765,1.072724,0.522970,0.256715,-0.332747,0.009059,0.075247,0.026373,275.045471,276.139496,25.000000,40.610584,0.535034,-13.368443
461775526.931101,0.024963,-0.219452,-0.802734,-0.550035,0.476166,1.075958,0.509858,0.259522,-0.148761,0.168737,-0.020268,-0.027575,274.777222,275.871246,25.000000,40.920681,0.294662,-13.534271
461775526.964387,0.039780,-0.247025,-0.769196,-0.550322,0.480975,1.077168,0.492880,0.215008,-0.010980,0.104839,0.043598,-0.071401,274.326843,275.420868,25.000000,40.748405,-0.151733,-13.567436
461775526.997032,0.128082,-0.240097,-1.032532,-0.289444,0.413795,0.963842,0.379159,0.189838,-0.031863,-0.041359,0.156460,-0.027341,274.302185,275.396210,25.000000,41.092960,-0.151733,-13.368443
461775527.031108,0.181732,-0.278824,-1.122665,-0.107358,0.341967,0.897149,0.281093,0.116103,-0.204105,0.017265,0.082712,-0.037179,274.815094,275.909119,25.000000,41.265236,0.294662,-13.202610
461775527.064387,0.076370,-0.318893,-0.842117,-0.068391,0.341988,0.882115,0.194949,0.040866,-0.029031,0.334685,-0.219415,-0.050051,274.635132,275.729156,25.000000,41.644245,-0.014389,-13.169445
461775527.097709,-0.091370,-0.325027,-0.888535,-0.080111,0.348110,0.881974,0.057754,-0.002659,0.110802,0.052203,-0.396988,0.009341,274.620850,275.714874,25.000000,41.506424,-0.357773,-13.567436
461775527.131050,-0.116287,-0.322433,-1.098511,-0.097041,0.351295,0.885153,-0.039430,0.029218,0.064866,-0.055452,-0.195130,0.029690,274.368561,275.462585,25.000000,41.368599,-0.563797,-13.965427
461775527.164372,0.020721,-0.298370,-1.134079,-0.108875,0.345395,0.890954,0.064172,0.036917,-0.231194,-0.095154,0.264085,0.041893,274.250458,275.344482,25.000000,41.058506,-0.598145,-13.932266
461775527.197699,0.170013,-0.265076,-0.938309,-0.085401,0.342329,0.887454,0.157420,0.029515,-0.048793,0.047840,0.372410,-0.006897,274.418121,275.512146,25.000000,40.955139,-0.357773,-13.832767
461775527.231069,0.123474,-0.179504,-0.828384,-0.076948,0.342737,0.887442,0.236677,0.074439,0.045787,-0.014034,0.166510,-0.007758,274.292297,275.386322,25.000000,40.679497,-0.495132,-13.567444
461775527.264296,0.021088,-0.203217,-1.057327,-0.075387,0.338419,0.887856,0.194518,0.152492,0.112217,-0.190623,0.001821,0.026695,274.971924,276.065948,25.000000,40.817318,0.122955,-13.501110
461775527.297796,-0.009140,-0.279510,-1.077621,-0.079265,0.332607,0.889986,0.059752,0.067810,-0.107151,-0.003450,-0.052880,0.044578,275.257141,276.351166,25.000000,40.989597,0.363327,-13.202610
461775527.331047,0.104935,-0.274170,-1.000870,-0.079676,0.334456,0.891381,0.162004,0.053323,-0.166943,0.154684,0.021142,0.021869,275.207092,276.301117,25.000000,41.230782,0.397659,-13.169445
461775527.364389,0.127151,-0.200806,-0.767303,-0.079163,0.336873,0.891799,0.227727,0.094377,0.033580,-0.027428,0.023146,0.013137,274.430664,275.524689,25.000000,41.265236,-0.323441,-13.467941
461775527.397726,0.108932,-0.163193,-0.756119,-0.080341,0.333341,0.892053,0.195100,0.150490,0.222516,-0.230363,-0.089937,0.037114,273.836365,274.930389,25.000000,41.403057,-0.872849,-13.733269
461775527.430413,-0.028641,-0.144958,-1.005661,-0.071845,0.307786,0.889901,0.112386,0.151002,0.022875,-0.295059,-0.106580,0.079481,273.861053,274.955078,25.000000,41.265236,-0.872849,-13.733269
461775527.464374,-0.066132,-0.236115,-1.275406,-0.077495,0.301317,0.892154,-0.006942,0.107890,-0.140632,-0.152857,-0.148931,0.078580,273.547119,274.641144,25.000000,41.299690,-0.632492,-13.567440
461775527.497716,-0.014236,-0.262955,-1.327972,-0.082749,0.298581,0.895175,0.048831,0.048437,-0.388733,0.030533,-0.147192,0.099485,273.505829,274.599854,25.000000,41.058506,-0.323456,-13.069950
461775527.531010,0.042999,-0.216797,-0.752930,-0.075906,0.295088,0.893994,0.094940,0.042823,-0.127552,0.197276,-0.102939,0.023454,273.331360,274.425385,25.000000,41.196327,-0.529495,-13.268944
461775527.564385,-0.037216,-0.113602,-0.697205,-0.076229,0.296529,0.894597,0.083497,0.084179,0.320340,-0.142336,0.053181,0.014422,273.080841,274.174866,25.000000,40.782867,-0.666840,-13.268944
461775527.597774,-0.029388,-0.029160,-0.899780,-0.072094,0.284807,0.894305,0.025963,0.213040,0.160073,-0.439439,0.179718,0.016991,272.893219,273.987244,25.000000,40.886234,-0.975891,-13.633774
461775527.631196,0.080902,-0.115173,-1.343597,-0.063552,0.272613,0.894351,0.059424,0.212578,-0.203317,-0.253910,0.279567,0.025986,273.350708,274.444733,25.000000,40.679501,-0.426468,-13.302113
461775527.664396,0.183762,-0.261383,-1.023773,-0.057294,0.283474,0.893184,0.251983,0.046004,-0.183438,0.508536,-0.086588,-0.096302,273.364075,274.458099,25.000000,41.127419,-0.117432,-12.671955
461775527.697735,0.165787,-0.218445,-0.836411,-0.058441,0.289404,0.888024,0.221766,0.066937,0.120367,0.290865,-0.356895,-0.111135,273.821960,274.915985,25.000000,41.437515,0.328964,-12.705124
461775527.731059,0.007889,-0.199219,-0.871338,-0.069533,0.290469,0.885777,0.102272,0.064569,0.135696,-0.103087,-0.324075,-0.046151,273.463806,274.557831,25.000000,41.575336,-0.220444,-12.771454
461775527.764410,-0.108673,-0.157013,-0.981506,-0.073860,0.288980,0.884936,0.024942,0.099351,0.087132,-0.093265,-0.254150,-0.043112,274.101410,275.195435,25.000000,41.540882,0.088608,-13.401608
461775527.797775,-0.078491,-0.202438,-1.091888,-0.075270,0.282936,0.884256,-0.006282,0.076738,-0.134368,-0.014192,0.106680,0.025916,273.717316,274.811340,25.000000,40.782864,-0.392120,-13.666935
461775527.831071,0.078033,-0.241272,-1.010406,-0.071236,0.286528,0.885512,0.145743,0.062805,-0.198765,0.263765,0.143363,0.006935,273.961731,275.055756,25.000000,40.541676,-0.151749,-13.965431
461775527.864428,0.152176,-0.228821,-0.877426,-0.054457,0.289324,0.880908,0.166258,0.054592,0.174133,0.016861,0.081723,-0.027280,273.962372,275.056396,25.000000,40.541676,-0.083084,-14.031765
461775527.898019,0.074509,-0.203766,-0.901077,-0.053534,0.288625,0.880789,0.203471,0.055813,0.079837,-0.046532,0.036776,0.004404,274.805389,275.899414,25.000000,40.886227,0.603683,-13.965431
461775527.930570,-0.035049,-0.221756,-1.019867,-0.049458,0.279383,0.878971,0.027135,0.065374,-0.097643,0.079759,-0.146786,-0.022085,274.535187,275.629211,25.000000,40.851772,0.294647,-13.666935
461775527.964365,-0.054703,-0.294449,-1.150528,-0.054450,0.281548,0.879134,-0.018506,0.013317,-0.022868,0.129508,-0.091609,0.013156,274.396179,275.490204,25.000000,41.058506,0.088608,-14.131260
461775527.997725,0.051620,-0.291794,-1.249466,-0.054197,0.285526,0.879432,0.041998,-0.007858,-0.273875,0.183975,0.050385,-0.008583,274.069977,275.164001,25.000000,41.127415,-0.186096,-14.064930
461775528.031093,0.080490,-0.271683,-0.771118,-0.052160,0.294589,0.878881,0.128992,0.037493,0.118264,0.246134,0.078111,-0.048644,274.679688,275.773712,25.000000,41.265240,0.294647,-14.330261
461775528.064384,0.116455,-0.166153,-0.977341,-0.048780,0.294162,0.877744,0.149449,0.064246,0.153386,-0.147888,0.108350,-0.006816,274.844635,275.938660,25.000000,40.955143,0.397659,-14.230762
461775528.097723,0.057556,-0.213928,-0.964951,-0.033041,0.278574,0.875135,0.157463,0.140387,-0.118346,-0.141412,0.077968,0.049654,275.128204,276.222229,25.000000,41.092960,0.397659,-14.429764
461775528.131076,0.032303,-0.270554,-0.857864,-0.033340,0.281422,0.875212,0.089579,0.063793,-0.004823,0.186716,-0.097015,-0.033936,275.003326,276.097351,25.000000,40.610584,0.397659,-14.230762
461775528.164489,0.007446,-0.279099,-1.067703,-0.033242,0.285780,0.873984,0.053068,-0.021882,-0.043270,0.008743,-0.190296,0.042519,275.151245,276.245270,25.000000,40.713951,0.638031,-13.865936
461775528.197709,0.049591,-0.232407,-0.893005,-0.039359,0.287778,0.875324,0.026592,-0.012610,-0.115352,0.079699,-0.148944,0.032889,275.120636,276.214661,25.000000,40.334946,0.466339,-14.098099
461775528.231080,0.000549,-0.214142,-0.724182,-0.037349,0.288684,0.875554,0.085386,0.052285,0.064945,0.148077,-0.031315,0.054199,274.961700,276.055725,25.000000,40.472767,0.122955,-14.695087
461775528.264554,-0.071503,-0.171860,-0.944031,-0.039692,0.287088,0.878077,0.024828,0.090122,0.213002,-0.163580,-0.038321,0.086047,274.701538,275.795563,25.000000,40.438313,-0.117416,-14.794590
461775528.297751,0.003326,-0.237259,-1.329163,-0.042991,0.269555,0.882818,-0.024797,0.075842,-0.215712,-0.125264,0.038687,0.066053,274.646576,275.740601,25.000000,40.266037,-0.083084,-14.628757
461775528.331057,0.093369,-0.244370,-1.126678,-0.040883,0.273660,0.883551,0.106519,0.029305,-0.306922,0.275984,0.067127,-0.011685,274.622375,275.716400,25.000000,39.955936,-0.392105,-14.197598
461775528.364321,0.073715,-0.219238,-0.789612,-0.039399,0.280623,0.883230,0.073661,0.030952,0.182305,0.059036,0.018913,-0.031163,274.586761,275.680786,25.000000,39.749207,-0.529465,-14.330261
461775528.397711,0.029068,-0.177628,-1.072250,-0.039345,0.276068,0.883174,0.056202,0.064200,0.032969,-0.197680,-0.003011,0.011015,274.534393,275.628418,25.000000,39.955936,0.019943,-14.064930
461775528.431070,-0.001007,-0.196732,-1.028748,-0.035005,0.264540,0.881812,0.046155,0.076452,-0.121056,-0.039494,0.025537,-0.024665,275.071625,276.165649,25.000000,39.990391,0.535019,-13.899097
461775528.464395,0.022415,-0.257721,-1.051361,-0.031477,0.262919,0.880643,0.031840,0.012953,-0.007194,-0.043176,0.036749,0.002036,274.749023,275.843048,25.000000,39.990391,0.191635,-14.098095
461775528.497717,0.038681,-0.252365,-0.938492,-0.028526,0.263129,0.879646,0.037810,0.019564,0.016961,0.065237,-0.006873,-0.030858,274.258606,275.352631,25.000000,39.714752,-0.220413,-14.031761
461775528.530718,0.085052,-0.217392,-1.017517,-0.027303,0.261635,0.878463,0.090473,0.015771,-0.042647,-0.064581,0.056355,-0.021499,273.440552,274.534576,25.000000,39.887028,-0.941528,-14.197590
461775528.564381,0.067657,-0.183975,-0.798996,-0.019598,0.259608,0.875748,0.099964,0.050769,0.102322,0.023959,0.030091,-0.040082,273.487030,274.581055,25.000000,39.852573,-0.769836,-13.965431
461775528.597753,-0.023087,-0.206146,-0.846893,-0.019103,0.259083,0.875487,0.041978,0.058089,0.225574,-0.038096,-0.020871,0.014853,273.670166,274.764191,25.000000,39.990395,-0.563797,-13.700104
461775528.631081,-0.052017,-0.208115,-1.012695,-0.020998,0.255399,0.876772,-0.012445,0.047493,0.015170,-0.115180,-0.070639,0.051361,273.687347,274.781372,25.000000,39.852573,-0.220428,-13.700108
461775528.664403,-0.058838,-0.309769,-1.252472,-0.026293,0.253365,0.880666,-0.033387,-0.059106,-0.284732,0.156337,0.034885,0.047506,273.897705,274.991730,25.000000,39.955940,-0.392120,-14.064930
461775528.697936,0.070145,-0.257553,-0.914642,-0.024497,0.260919,0.881492,0.087661,-0.033200,-0.035464,0.217190,0.105641,0.020426,273.870880,274.964905,25.000000,39.921482,-0.495132,-14.363426
