Timestamp,Accel_X,Accel_Y,Accel_Z,Roll,Pitch,Yaw,UserAcc_X,UserAcc_Y,UserAcc_Z,RotRate_X,RotRate_Y,RotRate_Z,MagHeading,TrueHeading,HeadingAccuracy,MagX,MagY,MagZ
461773365.972433,0.000000,0.000000,0.000000,0.000000,0.000000,0.000000,0.000000,0.000000,0.000000,0.000000,0.000000,0.000000,0.000000,0.000000,0.000000,0.000000,0.000000,0.000000
461773366.005896,0.092453,-0.154221,-1.008041,0.000000,0.000000,0.000000,0.000000,0.000000,0.000000,0.000000,0.000000,0.000000,0.000000,0.000000,0.000000,0.000000,0.000000,0.000000
461773366.038526,0.090195,-0.158691,-1.008774,0.000000,0.000000,0.000000,0.000000,0.000000,0.000000,0.000000,0.000000,0.000000,0.000000,0.000000,0.000000,0.000000,0.000000,0.000000
461773366.072474,0.088989,-0.167969,-0.982803,0.000000,0.000000,0.000000,0.000000,0.000000,0.000000,0.000000,0.000000,0.000000,0.000000,0.000000,0.000000,0.000000,0.000000,0.000000
461773366.105513,0.087097,-0.170441,-0.980942,0.000000,0.000000,0.000000,0.000000,0.000000,0.000000,0.000000,0.000000,0.000000,0.000000,0.000000,0.000000,0.000000,0.000000,0.000000
461773366.139223,0.085373,-0.182968,-0.983917,0.000000,0.000000,0.000000,0.000000,0.000000,0.000000,0.000000,0.000000,0.000000,0.000000,0.000000,0.000000,0.000000,0.000000,0.000000
461773366.172454,0.089127,-0.176620,-0.988159,0.000000,0.000000,0.000000,0.000000,0.000000,0.000000,0.000000,0.000000,0.000000,0.000000,0.000000,0.000000,0.000000,0.000000,0.000000
461773366.205158,0.081482,-0.177307,-1.001617,0.000000,0.000000,0.000000,0.000000,0.000000,0.000000,0.000000,0.000000,0.000000,0.000000,0.000000,0.000000,0.000000,0.000000,0.000000
461773366.238322,0.074005,-0.169907,-0.974365,0.000000,0.000000,0.000000,0.000000,0.000000,0.000000,0.000000,0.000000,0.000000,0.000000,0.000000,0.000000,0.000000,0.000000,0.000000
461773366.271672,0.073257,-0.181915,-0.973938,0.000000,0.000000,0.000000,0.000000,0.000000,0.000000,0.000000,0.000000,0.000000,0.000000,0.000000,0.000000,0.000000,0.000000,0.000000
461773366.305841,0.084167,-0.193207,-0.985504,0.000000,0.000000,0.000000,0.000000,0.000000,0.000000,0.000000,0.000000,0.000000,0.000000,0.000000,0.000000,0.000000,0.000000,0.000000
461773366.339166,0.083710,-0.186813,-0.981537,0.000000,0.000000,0.000000,0.000000,0.000000,0.000000,0.000000,0.000000,0.000000,0.000000,0.000000,0.000000,0.000000,0.000000,0.000000
461773366.372474,0.086624,-0.203720,-0.972351,0.000000,0.000000,0.000000,0.000000,0.000000,0.000000,0.000000,0.000000,0.000000,0.000000,0.000000,0.000000,0.000000,0.000000,0.000000
461773366.405019,0.089111,-0.201584,-0.971756,0.091612,0.164519,-0.009422,-0.002800,-0.036082,0.006469,0.122976,0.007828,-0.122247,0.000000,0.000000,0.000000,0.000000,0.000000,0.000000
461773366.439131,0.104797,-0.213943,-0.991638,0.093362,0.177064,-0.014570,0.007489,-0.027611,0.003531,0.116701,-0.000895,-0.152706,0.000000,0.000000,0.000000,0.000000,0.000000,0.000000
461773366.471655,0.097031,-0.222107,-1.027664,0.096746,0.188189,-0.020580,0.011754,-0.030739,-0.022280,0.225289,-0.008705,-0.148137,0.000000,0.000000,0.000000,0.000000,0.000000,0.000000
461773366.505807,0.081100,-0.217422,-1.011734,0.094282,0.205715,-0.026287,-0.005060,-0.019778,-0.058208,0.648690,-0.232665,-0.132904,0.000000,0.000000,0.000000,0.000000,0.000000,0.000000
461773366.538951,0.064163,-0.234497,-0.964890,0.083821,0.226618,-0.036860,0.004004,-0.032137,0.026873,0.532624,-0.462674,-0.323044,0.000000,0.000000,0.000000,0.000000,0.000000,0.000000
461773366.572515,0.061584,-0.275314,-0.956207,0.071132,0.242684,-0.046740,-0.015523,-0.008684,-0.007420,0.541612,-0.432735,-0.226890,0.000000,0.000000,0.000000,0.000000,0.000000,0.000000
461773366.605342,0.053635,-0.276459,-0.946365,0.064508,0.259118,-0.053133,-0.000727,-0.019086,0.008399,0.376605,-0.132024,-0.133545,0.000000,0.000000,0.000000,0.000000,0.000000,0.000000
461773366.638959,0.080414,-0.277618,-0.954422,0.072140,0.262972,-0.062109,0.002620,-0.017255,0.012427,-0.140715,0.223351,-0.209356,325.047302,326.141846,10.000000,20.745302,20.812813,-28.894638
461773366.672203,0.083069,-0.298111,-0.977173,0.080420,0.260106,-0.067130,-0.000346,-0.020359,-0.017168,-0.060499,0.154612,-0.149498,325.744476,326.839020,10.000000,20.641935,21.259193,-28.662479
461773366.705589,0.106735,-0.271332,-0.988800,0.088230,0.258322,-0.072603,0.035825,-0.017765,-0.022948,-0.101585,0.172107,-0.139017,326.063171,327.157715,10.000000,20.504116,21.190514,-28.529812
461773366.739161,0.109619,-0.271652,-1.002213,0.094148,0.253697,-0.076972,0.013996,-0.022698,-0.033702,-0.172516,0.109818,-0.149924,325.843719,326.938263,10.000000,20.848669,20.984489,-27.999155
461773366.772494,0.119156,-0.253159,-0.976547,0.098555,0.249640,-0.081383,0.017112,-0.011795,-0.018123,-0.067661,0.075007,-0.145115,326.408508,327.503052,10.000000,20.573023,20.984489,-28.065487
461773366.805821,0.108582,-0.252014,-0.961823,0.101430,0.248078,-0.086366,0.011066,-0.007847,0.006778,-0.016337,-0.004917,-0.146386,326.106995,327.201538,10.000000,20.917578,21.121834,-27.866491
461773366.839109,0.098312,-0.266037,-0.959747,0.103226,0.247388,-0.091266,0.002572,-0.012269,-0.006294,-0.043712,-0.028109,-0.154912,326.755737,327.850281,10.000000,20.676390,21.705574,-27.766993
461773366.872454,0.115356,-0.250641,-0.964523,0.104762,0.246290,-0.096191,0.011058,-0.004453,0.000990,-0.090952,0.022632,-0.128939,326.537842,327.632385,10.000000,21.262129,21.877266,-27.468496
461773366.905314,0.112137,-0.246521,-0.970032,0.107325,0.243456,-0.099695,0.013761,-0.014359,-0.004205,-0.108114,-0.027310,-0.100539,326.663452,327.757996,10.000000,20.986486,21.739906,-27.335835
461773366.939146,0.108856,-0.244232,-0.972961,0.106718,0.240666,-0.102653,0.008996,-0.004464,-0.005155,-0.115261,-0.092089,-0.084110,326.959595,328.054138,10.000000,20.607477,21.774254,-27.567997
461773366.972509,0.105515,-0.242538,-0.985382,0.105789,0.235127,-0.106758,0.004949,-0.007345,-0.012474,-0.105477,-0.001353,-0.103248,327.041107,328.135651,10.000000,20.469656,21.980293,-28.032322
461773367.005808,0.113190,-0.231049,-0.969940,0.107028,0.231821,-0.110413,0.002967,-0.004595,-0.000062,-0.139183,0.024409,-0.131810,327.108643,328.203186,10.000000,20.469656,22.461006,-28.164984
461773367.039192,0.112259,-0.234344,-0.984665,0.108959,0.227066,-0.114143,0.006306,-0.009225,-0.016112,-0.125373,0.012209,-0.121839,327.218781,328.313324,10.000000,20.607477,23.010399,-27.965988
461773367.072544,0.113800,-0.232712,-0.983337,0.110205,0.224313,-0.117970,-0.001880,-0.012305,-0.023674,-0.051801,0.024064,-0.131142,327.389771,328.484314,10.000000,20.262926,23.147743,-28.098652
461773367.105857,0.117004,-0.226578,-0.973083,0.112451,0.223458,-0.121776,0.009426,-0.007111,-0.003434,-0.024155,0.010712,-0.097871,327.550995,328.645538,10.000000,20.297384,23.388115,-28.131817
461773367.139261,0.111877,-0.225662,-0.972900,0.113898,0.223810,-0.124879,0.001060,-0.003716,-0.004159,0.050776,0.000651,-0.094770,327.613953,328.708496,10.000000,20.297384,22.907387,-28.198151
461773367.172547,0.118347,-0.233719,-0.959229,0.113175,0.228605,-0.129519,0.007054,-0.007969,0.003611,0.208152,-0.135304,-0.149556,327.737762,328.832306,10.000000,20.297384,23.388100,-27.667496
461773367.205859,0.121323,-0.238007,-0.968033,0.108722,0.236656,-0.136291,0.012009,-0.000394,0.008609,0.280750,-0.252282,-0.183235,327.909698,329.004242,10.000000,20.056196,23.422432,-27.766993
461773367.239192,0.125229,-0.268021,-0.998611,0.100494,0.249558,-0.145654,0.028714,-0.001788,-0.014703,0.630093,-0.494501,-0.289838,329.142303,330.236847,10.000000,20.090651,23.594124,-27.866489
461773367.271744,0.103760,-0.258209,-0.951660,0.071597,0.282316,-0.164057,0.045676,0.021516,-0.010645,1.339728,-1.491102,-0.616093,330.946899,332.041443,10.000000,18.919176,23.250740,-28.927801
461773367.305985,0.047012,-0.393494,-0.906403,0.021134,0.329539,-0.197999,0.055643,-0.015505,0.013531,1.540376,-2.040508,-1.050736,334.030975,335.125519,10.000000,16.162758,22.014595,-30.851435
461773367.339348,-0.105896,-0.354614,-0.855667,-0.039967,0.379535,-0.233710,0.018223,0.005682,0.031306,1.525550,-2.228717,-1.144136,336.103027,337.197571,10.000000,14.233267,21.327827,-32.310741
461773367.372608,-0.090775,-0.459869,-0.787476,-0.092622,0.424492,-0.276783,-0.026407,0.026177,0.102395,0.924705,-2.101959,-1.352516,340.157349,341.251892,10.000000,9.788540,19.507927,-34.798199
461773367.405865,-0.114838,-0.480148,-0.709213,-0.129017,0.435044,-0.311907,-0.023859,0.024569,0.202171,-0.578494,-0.988212,-0.684565,342.671936,343.766479,10.000000,6.756477,19.027184,-36.191177
461773367.439258,-0.144943,-0.379578,-1.047318,-0.123639,0.386193,-0.338370,0.039611,-0.105803,0.117627,-2.014142,0.369049,-0.538257,343.522797,344.617340,10.000000,5.929552,19.851295,-35.992180
461773367.472591,-0.086105,-0.304382,-1.069794,-0.109576,0.333678,-0.366979,-0.041618,-0.052057,-0.108140,-1.236205,-0.234087,-0.670265,344.428375,345.522919,10.000000,5.447176,22.323631,-35.527855
461773367.505959,-0.099365,-0.280640,-1.066101,-0.129252,0.326799,-0.383320,0.050217,0.065886,-0.109180,0.404753,-1.181922,-0.284710,347.157074,348.251617,10.000000,3.793324,24.246559,-35.594185
461773367.539345,-0.165344,-0.316177,-0.886612,-0.178171,0.355285,-0.390425,0.063684,0.058383,-0.118203,0.939226,-1.730204,-0.461827,348.653320,349.747864,10.000000,2.587392,24.212227,-35.627354
461773367.572636,-0.244583,-0.313217,-0.864960,-0.226137,0.384183,-0.408906,0.042526,0.058624,0.016889,0.709527,-1.670025,-0.868012,351.293091,352.387634,10.000000,-0.616941,22.873055,-36.257511
461773367.606086,-0.181931,-0.508972,-0.852051,-0.249138,0.417388,-0.442891,-0.055193,0.049280,-0.043974,0.838212,-0.883020,-1.371422,352.460419,353.554962,10.000000,-3.235536,21.087471,-36.390175
461773367.639221,-0.183472,-0.580231,-0.763214,-0.244895,0.450883,-0.481098,0.083916,-0.040512,0.140633,-0.321749,0.021024,-0.391311,352.892761,353.987305,10.000000,-4.062461,20.606758,-36.721832
461773367.672648,-0.244247,-0.469330,-0.939209,-0.229272,0.448586,-0.476604,-0.048040,-0.071863,-0.140859,0.087900,0.284674,0.358291,354.016113,355.110657,10.000000,-4.200282,20.675423,-36.854500
461773367.705894,-0.102356,-0.370346,-0.889389,-0.229236,0.446155,-0.461705,0.079502,0.033657,0.000722,0.007059,0.253311,0.392148,354.391693,355.486237,10.000000,-3.821275,20.915794,-37.219326
461773367.739224,-0.177628,-0.362167,-0.988251,-0.222969,0.450526,-0.456499,0.122234,0.072631,-0.021038,0.408946,0.165224,0.065412,354.058228,355.152771,10.000000,-3.511180,20.950142,-37.186165
461773367.772650,-0.143753,-0.288116,-1.050964,-0.220199,0.468764,-0.440774,0.040931,0.166170,-0.172444,1.038043,0.265231,0.692655,353.243958,354.338501,10.000000,-3.201081,20.023018,-37.749989
461773367.805950,-0.092804,-0.364304,-0.976959,-0.224970,0.508121,-0.396592,0.079003,0.247431,-0.147974,1.687639,0.588526,0.878623,352.001373,353.095917,10.000000,-2.064060,18.546471,-37.650490
461773367.839256,-0.213913,-0.537567,-0.815338,-0.219266,0.568948,-0.347074,0.023824,0.084828,-0.098021,2.528598,0.976359,0.904365,349.087494,350.182037,10.000000,-0.651396,14.391563,-38.081642
461773367.872637,-0.377609,-0.584702,-0.433243,-0.237076,0.652124,-0.281162,-0.041467,0.019306,0.057020,3.001838,0.555907,1.161058,346.984650,348.079193,10.000000,0.451171,11.987907,-38.015312
461773367.905948,-0.236404,-0.495331,-0.215408,-0.271589,0.702758,-0.231867,-0.075237,0.020547,0.748032,0.615629,-0.181917,0.486477,344.282043,345.376587,10.000000,1.450371,7.420952,-38.645470
461773367.939448,0.248444,-0.429077,-0.991852,-0.266082,0.650245,-0.238801,0.145818,0.155308,0.177105,-2.750377,0.270214,0.037776,342.939758,344.034302,10.000000,1.519283,7.420952,-38.446472
461773367.973178,0.154572,-0.539627,-0.803421,-0.265255,0.524471,-0.261537,0.381490,-0.038872,0.031894,-1.088975,0.425340,0.604040,343.220673,344.315216,10.000000,1.105819,8.931824,-38.512806
461773368.005935,-0.174683,-0.370255,-0.821213,-0.257141,0.515443,-0.257752,0.103141,0.084839,-0.072794,-0.258564,0.436509,0.188139,344.084412,345.178955,10.000000,1.071364,12.743355,-38.214310
461773368.039269,-0.223831,-0.328842,-0.961533,-0.244400,0.487547,-0.255658,0.018468,0.112930,-0.037729,-1.066819,0.376778,0.490005,343.351105,344.445648,10.000000,1.140273,15.147026,-38.280643
461773368.072844,-0.312057,-0.374130,-0.987930,-0.242555,0.452804,-0.242751,-0.096079,0.063358,-0.115029,-0.872722,0.215823,0.616315,342.934814,344.029358,10.000000,1.794924,16.005470,-38.247475
461773368.105952,-0.310852,-0.423767,-0.957855,-0.238807,0.426388,-0.230570,-0.066832,-0.011006,-0.064683,-0.507534,0.516041,0.386750,342.373688,343.468231,10.000000,2.656307,17.619347,-38.147980
461773368.139237,-0.270752,-0.399048,-1.100632,-0.223607,0.420407,-0.230983,-0.142074,-0.101634,-0.080737,-0.282472,1.165196,-0.109670,340.998962,342.093506,10.000000,3.965606,18.786842,-38.015316
461773368.172564,-0.190338,-0.509125,-1.029068,-0.158724,0.417277,-0.248609,-0.045842,-0.103852,-0.126364,-0.193089,0.815052,-0.105498,339.763245,340.857788,10.000000,4.620253,19.027214,-37.517826
461773368.205951,-0.233582,-0.451828,-0.927063,-0.144951,0.392162,-0.240376,-0.076635,-0.086242,-0.016423,-1.065164,0.342957,0.590399,339.480286,340.574829,10.000000,6.411924,19.095894,-36.920834
461773368.239270,-0.271698,-0.324539,-0.858688,-0.134168,0.354039,-0.225935,-0.139499,-0.076528,0.041489,-1.059251,0.785875,0.421048,338.909973,340.004517,10.000000,7.996864,19.988686,-35.992184
461773368.272536,-0.070145,-0.334396,-0.998444,-0.090405,0.319183,-0.236492,-0.084337,0.110910,-0.020755,-1.248495,1.228630,-0.682835,338.579163,339.673706,10.000000,8.685970,21.018822,-35.726856
461773368.305910,-0.048050,-0.396545,-0.976532,-0.052237,0.278973,-0.270807,0.008065,-0.111030,-0.032694,-1.323057,0.725496,-0.962658,337.785858,338.880402,10.000000,9.685171,23.525505,-34.632378
461773368.339372,-0.020767,-0.251877,-0.987961,-0.017394,0.235175,-0.298726,0.047127,-0.097309,-0.002191,-1.480361,0.921451,-0.493661,339.390808,340.485352,10.000000,10.408730,26.924965,-33.537895
461773368.372517,-0.061951,-0.076370,-0.998367,0.002929,0.179550,-0.300517,-0.083662,-0.066149,-0.021436,-1.873762,0.424640,0.118298,341.078949,342.173492,10.000000,11.201200,30.049736,-31.846420
461773368.405921,0.028870,-0.002960,-0.911469,0.018600,0.118905,-0.302868,-0.036000,0.089542,0.042862,-1.890465,0.584445,-0.295792,341.301147,342.395691,10.000000,11.407934,31.285896,-30.851437
461773368.439209,0.120270,-0.089676,-1.100464,0.045434,0.060746,-0.314475,0.022048,-0.096747,-0.111731,-1.509009,0.782037,-0.203343,341.293427,342.387970,10.000000,12.441591,33.895592,-28.596142
461773368.472605,0.041031,-0.064575,-1.174316,0.057712,0.026759,-0.310336,0.036304,-0.074914,-0.125863,-0.747046,0.228276,0.152047,341.619507,342.714050,10.000000,13.199608,35.887199,-26.937841
461773368.505900,0.019028,-0.019241,-1.069199,0.053916,0.019974,-0.300231,-0.012849,-0.044603,-0.175969,0.100779,-0.434616,0.371317,341.835663,342.930206,10.000000,13.234062,36.814323,-26.772009
461773368.539278,-0.029343,-0.001694,-0.874435,0.034959,0.031545,-0.286663,0.037499,0.025817,0.079138,0.357145,-0.550412,0.503754,341.889923,342.984467,10.000000,13.096243,36.882988,-26.772009
461773368.572651,-0.087204,0.012024,-0.910873,0.028325,0.036244,-0.273138,-0.087751,0.081463,0.107249,-0.060491,0.072222,0.235712,340.802155,341.896698,10.000000,13.440792,36.470924,-27.169998
461773368.606284,-0.011810,0.045288,-0.924698,0.033960,0.028597,-0.269415,-0.121143,0.040617,0.088141,-0.321693,0.139013,0.114707,340.047211,341.141754,10.000000,13.923164,36.676949,-27.169998
461773368.638330,0.015793,0.031265,-0.903732,0.037520,0.017390,-0.267475,-0.014022,0.052911,0.076904,-0.370894,0.122279,-0.068506,339.467529,340.562073,10.000000,14.474449,37.089012,-26.971003
461773368.672663,-0.008652,0.013718,-1.029633,0.047835,-0.003557,-0.269710,-0.077281,-0.008425,0.064096,-0.515036,0.385387,-0.100290,339.248840,340.343384,10.000000,14.887911,38.119164,-25.909689
461773368.706030,0.047653,-0.024033,-1.025833,0.058348,-0.018402,-0.276410,-0.010651,-0.042433,-0.027704,-0.340283,0.204952,-0.181331,339.302795,340.397339,10.000000,14.750090,37.844460,-25.578030
461773368.739287,0.009476,0.039536,-0.994461,0.060665,-0.026257,-0.273182,-0.001479,-0.013010,0.018126,-0.453108,-0.026838,0.198309,339.934052,341.028595,10.000000,14.267714,37.913139,-24.583048
461773368.772558,-0.000244,0.045898,-0.902481,0.051777,-0.048277,-0.265929,-0.090054,0.040700,0.006697,-0.791954,-0.219365,0.192801,340.131104,341.225647,10.000000,14.129894,38.050484,-24.118723
461773368.805882,-0.173965,0.295639,-0.833054,0.038421,-0.086907,-0.252190,-0.055265,-0.018469,0.117973,-1.488356,-0.603453,0.520714,341.194458,342.289001,10.000000,13.888708,38.771599,-23.223240
461773368.839273,-0.311935,0.415695,-0.688416,-0.001416,-0.144677,-0.230610,-0.253238,0.220573,0.191868,-2.094529,-1.928900,0.686673,341.047882,342.142426,10.000000,14.129894,40.591499,-22.261423
461773368.872659,-0.613037,0.638641,-0.686081,-0.096937,-0.243412,-0.208321,-0.312363,0.275616,0.438987,-3.766743,-3.778037,0.930224,342.269073,343.363617,10.000000,11.959215,43.372871,-20.835278
461773368.904976,-0.525543,0.515137,-1.008057,-0.244530,-0.387365,-0.213438,-0.460225,0.232937,0.082460,-4.656505,-4.985216,0.271757,342.523376,343.617920,10.000000,10.753283,45.398811,-19.807129
461773368.939337,-0.591064,0.690948,-1.043655,-0.431403,-0.520941,-0.269928,-0.162864,0.017440,-0.220172,-4.198653,-4.844579,-0.337380,342.075104,343.169647,10.000000,6.515291,49.485054,-16.324692
461773368.972734,-0.975861,0.741623,-0.972382,-0.731442,-0.657587,-0.430266,-0.381973,0.130734,-0.352446,-3.985509,-3.636410,-1.403115,340.312927,341.407471,10.000000,2.105022,53.674294,-11.681438
461773369.005875,-1.020370,0.788040,-0.777618,-0.840240,-0.680045,-0.516054,-0.410643,0.133776,-0.409853,-3.897781,-3.372519,-2.221274,342.604645,343.699188,10.000000,-0.789216,55.322517,-9.094486
461773369.039263,-0.893585,0.745438,-0.953888,-1.153698,-0.648614,-0.803515,-0.164985,0.141355,-0.631048,-3.383646,-2.321078,-3.645496,342.553375,343.647919,10.000000,-5.957500,57.863533,-3.124588
461773369.072737,-0.822968,0.615662,-0.535034,-1.326923,-0.654991,-0.837329,0.025828,-0.434988,-0.495534,0.156004,-4.766148,0.777288,344.298676,345.393219,10.000000,-10.608955,58.721992,2.148819
461773369.105917,-1.385406,0.925385,0.341568,-1.428824,-0.637112,-0.880069,-0.494172,0.382678,-0.076266,-1.356868,-1.164296,-1.612622,348.524139,349.618683,10.000000,-13.503197,58.584633,6.261421
461773369.139262,-1.206253,0.658432,-0.094467,-1.458281,-0.603956,-0.919234,-0.567515,0.357482,0.433984,-2.001300,-0.096880,-2.645689,345.113586,346.208130,10.000000,-14.536854,58.447289,7.588062
461773369.172624,-0.814957,0.267334,-0.221176,-1.511001,-0.490331,-1.023380,0.086975,-0.260484,-0.347138,-0.643374,-0.865058,-1.733373,347.008606,348.103149,10.000000,-17.741192,57.451485,10.672508
461773369.205934,-0.512741,0.104019,0.172318,-1.565629,-0.456454,-1.070281,-0.313939,-0.002581,0.450836,-2.503387,-1.255418,-1.047062,355.684021,356.778564,10.000000,-20.497608,56.215309,13.591118
461773369.239235,-0.470276,0.085403,-0.516266,-1.687208,-0.433903,-1.174865,0.386268,-0.283620,-0.418115,-1.632017,-2.788907,0.020939,358.018066,359.112610,10.000000,-21.290077,55.631554,15.348919
461773369.272614,-0.676376,0.281494,0.141068,-1.729578,-0.435288,-1.185175,0.457995,-0.290080,-0.218490,-0.374868,-2.033957,0.199929,0.950989,2.045540,10.000000,-21.290077,55.013466,18.798195
461773369.306056,-0.692642,0.063156,0.002029,-1.751944,-0.465417,-1.230980,-0.014786,-0.250584,-0.089508,-0.520550,1.143648,1.028494,1.797655,2.892205,10.000000,-20.049690,54.944786,20.788162
461773369.339198,-0.332138,0.254761,-0.212509,-1.706053,-0.516088,-1.248613,0.336605,-0.376996,-0.212024,-0.001278,2.007842,2.170680,1.016418,2.110969,10.000000,-19.429497,55.219490,21.186150
461773369.372623,-1.049133,0.887573,0.626999,-1.684227,-0.600551,-1.251646,0.362661,0.136716,-0.053908,0.345010,-0.326535,2.650439,0.856604,1.951155,10.000000,-16.879810,55.700233,21.186150
461773369.405914,-1.107925,0.518265,-0.082321,-1.652862,-0.662327,-1.245749,-0.379740,0.212714,0.163234,0.494544,1.898276,1.172697,358.101288,359.195831,10.000000,-14.502397,56.627357,20.622322
461773369.439173,-0.586914,0.535294,-0.150650,-1.590213,-0.708674,-1.226296,-0.261334,-0.194468,-0.160935,0.482323,1.130032,1.836635,354.552582,355.647125,10.000000,-13.124189,56.902061,19.892670
461773369.472607,-0.815277,0.312256,-0.014740,-1.570489,-0.785869,-1.216258,0.119860,-0.172146,-0.150432,0.136903,-0.304372,2.715730,352.996582,354.091125,10.000000,-10.057673,57.348457,19.063522
461773369.505800,-0.532684,1.276932,0.403427,-1.621133,-0.862751,-1.230683,-0.119914,-0.095786,-0.122856,-0.839914,-2.054091,1.742355,351.254852,352.349396,10.000000,-5.716316,57.279793,19.262520
461773369.539219,-0.668625,0.666229,0.017456,-1.721986,-0.898737,-1.268531,0.036838,0.425497,0.391686,-0.214038,-1.035555,0.901269,348.570068,349.664612,10.000000,-3.890187,57.176781,19.494682
461773369.572635,-0.679276,0.479858,-0.049225,-1.678511,-0.916038,-1.253696,-0.063187,-0.126966,-0.048012,0.585454,1.645456,0.573218,340.846619,341.941162,10.000000,-1.064857,56.902077,19.428352
461773369.606030,-0.478806,0.764297,0.143951,-1.620368,-0.942224,-1.236067,-0.082959,-0.261886,-0.167105,0.061067,1.009099,0.693894,337.858795,338.953339,10.000000,-0.513573,56.558693,19.229362
461773369.639216,-0.483887,0.695328,0.092377,-1.662180,-0.961446,-1.294014,0.176041,-0.286954,0.261781,-0.970895,0.244450,0.722907,338.785553,339.880096,10.000000,-0.651393,56.558693,19.693687
461773369.672635,-0.560379,0.631821,-0.182175,-1.661933,-1.000456,-1.329799,0.019688,-0.284085,-0.075322,-0.034801,1.288723,1.701780,339.703125,340.797668,10.000000,0.072166,56.180977,20.987167
461773369.706075,-0.203430,0.714310,-0.273193,-1.646484,-1.077230,-1.340594,0.378663,-0.337939,-0.074719,-0.062152,0.531834,3.082867,339.123169,340.217712,10.000000,2.380666,55.734566,22.346970
461773369.739216,-0.433655,1.342163,0.321869,-1.655284,-1.195801,-1.378378,-0.347501,0.467379,0.483511,-1.020644,0.801984,3.440079,338.421936,339.516479,10.000000,7.204397,54.086342,23.474609
461773369.772646,-0.351959,1.131104,0.112137,-1.889092,-1.263662,-1.662664,-0.103452,0.253644,0.123191,-3.273680,0.918920,2.537174,336.985840,338.080383,10.000000,9.650717,52.747154,24.900749
461773369.806084,-0.267242,1.177841,0.120880,-2.240806,-1.269570,-2.038738,-0.026482,0.476850,-0.411538,-1.524969,0.218892,0.976355,332.244781,333.339325,10.000000,13.957619,49.485054,28.184196
461773369.839287,-0.222992,0.905746,0.314224,-2.226602,-1.288848,-2.015588,-0.018854,-0.024129,0.073791,1.155076,-0.620858,-0.004979,328.766602,329.861145,10.000000,15.680380,47.287422,29.975166
461773369.872789,-0.062012,0.914871,0.312317,-2.192536,-1.295873,-1.957422,0.052794,-0.037000,0.157035,-0.000428,-0.423304,-0.069460,327.402496,328.497040,10.000000,15.818199,46.944038,29.908829
461773369.905952,-0.304367,1.006348,0.133499,-2.212578,-1.294257,-1.992987,-0.038239,-0.028855,-0.019307,-0.308006,0.750085,0.151964,326.805389,327.899933,10.000000,15.714834,46.497643,29.742996
461773369.939334,-0.357773,0.832397,0.119339,-2.219125,-1.291825,-2.017449,-0.086109,0.019420,-0.025596,-0.118799,0.310870,0.108985,325.911224,327.005768,10.000000,15.714836,46.222969,29.875664
461773369.972894,-0.173111,0.843521,0.252762,-2.139798,-1.287378,-1.942097,-0.053163,-0.065696,0.045195,0.477585,-0.040546,-0.821158,326.622742,327.717285,10.000000,15.370287,46.222969,30.140991
461773370.005927,-0.199081,0.722046,0.205338,-2.112939,-1.259588,-1.924565,0.151063,-0.244887,0.151453,-0.822064,0.763858,-0.671962,327.497925,328.592468,10.000000,14.198809,46.703697,30.605316
461773370.039256,-0.180420,0.896713,0.156479,-2.120655,-1.244163,-1.979454,0.081682,-0.099533,-0.034810,0.090352,0.535634,0.539015,330.210327,331.304871,10.000000,12.682777,46.841057,31.135971
461773370.072502,-0.177063,0.885635,0.217270,-2.135737,-1.264588,-2.006045,0.077544,-0.067848,0.055886,0.029960,0.264820,0.563213,331.055969,332.150513,10.000000,12.682777,46.978401,31.202309
461773370.105917,-0.215530,0.826401,0.187561,-2.149077,-1.266957,-2.032933,0.021078,-0.090944,0.059050,-0.289003,0.484371,0.052276,332.104248,333.198792,10.000000,12.820601,46.635017,31.135971
461773370.139264,-0.123672,0.462753,0.174484,-2.151691,-1.263443,-2.042986,0.048414,-0.339566,0.017097,-0.309635,0.383534,-0.226264,332.242340,333.336884,10.000000,12.579414,46.600670,31.633469
461773370.172503,0.033188,0.218979,0.119186,-2.090084,-1.277558,-2.019801,0.264270,-0.626472,-0.045470,0.924477,1.271995,1.007766,333.613586,334.708130,10.000000,11.683577,46.531990,32.429459
461773370.205928,0.008652,0.202011,0.176239,-2.074150,-1.340639,-2.060259,0.229835,-0.758604,0.081776,0.152297,1.917521,2.163001,334.421997,335.516541,10.000000,11.614666,46.394646,32.628464
461773370.239259,-0.035553,0.123840,0.129105,-2.333374,-1.381750,-2.382803,0.103530,-0.851004,-0.016426,-1.495630,1.168174,2.235955,335.886932,336.981476,10.000000,12.544958,44.918098,34.054604
461773370.272231,0.050980,6.724808,0.719818,-2.565907,-1.382101,-2.629848,0.066566,-0.858410,-0.028239,-1.939008,0.390663,2.222838,336.473969,337.568512,10.000000,13.819801,43.441551,35.149078
461773370.305876,-0.166718,0.552292,0.069382,-2.892821,-1.385221,-3.069695,-0.213192,0.248050,0.093996,0.914613,4.599525,-0.005546,336.739197,337.833740,10.000000,14.508907,40.625847,37.338036
461773370.339253,0.083649,0.711288,0.007950,-2.642634,-1.388454,-2.927410,0.084313,-0.737542,-0.174133,0.097409,2.585009,-0.794497,336.511688,337.606232,10.000000,11.924765,39.630043,39.228500
461773370.372594,-0.142868,1.030563,-0.029465,-2.629221,-1.369881,-2.963932,0.126965,0.096196,-0.149006,-1.198246,1.014197,0.386142,345.906128,347.000671,10.000000,8.031324,39.252327,41.185295
461773370.406042,-0.115829,0.979904,-0.062836,-2.693880,-1.338248,-3.069097,-0.025722,0.011628,-0.256465,-0.843100,1.205929,0.058758,347.436646,348.531189,10.000000,7.101034,38.874596,41.815453
461773370.439785,-0.067245,1.016815,0.051620,-2.699867,-1.338149,-3.092776,0.006842,0.091165,-0.211858,0.343840,-0.083708,0.178282,350.952820,352.047363,10.000000,6.653114,38.153496,42.777267
461773370.472632,-0.102554,0.997498,0.069305,-2.718618,-1.350497,-3.093921,0.020316,0.004194,-0.155822,0.340545,-0.769588,0.202172,351.782135,352.876678,10.000000,6.480837,38.462532,42.744095
461773370.505883,-0.091537,1.003784,0.106796,-2.746010,-1.368482,-3.089772,-0.025124,0.017893,-0.116114,0.599160,-1.058312,0.132600,351.459839,352.554382,10.000000,6.825390,38.943275,42.611435
461773370.539207,-0.051605,0.999588,0.155350,-2.747875,-1.386206,-3.051697,0.032723,0.075079,-0.030860,0.515789,-1.400146,-0.057398,349.097046,350.191589,10.000000,8.169142,39.320992,41.450615
461773370.572652,-0.071625,0.996002,0.219009,-2.787724,-1.399529,-3.038382,-0.009773,0.011106,0.010203,0.379813,-1.701832,0.093413,345.115417,346.209961,10.000000,10.718832,39.527016,39.924980
461773370.605997,-0.060074,0.974152,0.306183,-2.816850,-1.411445,-3.017049,-0.020996,0.008672,0.068625,0.382511,-1.414053,-0.018016,342.756256,343.850800,10.000000,12.131493,39.698723,39.162163
461773370.639263,-0.083420,0.988083,0.263489,-2.830093,-1.420430,-2.999809,-0.010027,-0.007897,0.162630,0.208350,-0.422424,0.065934,339.132233,340.226776,10.000000,13.888710,39.870399,38.996330
461773370.672641,-0.114929,0.992569,0.163055,-2.833308,-1.422449,-3.025967,-0.036055,0.003674,0.063449,-0.164872,0.817700,0.093426,338.027893,339.122437,10.000000,13.888708,40.351128,39.128998
461773370.705873,-0.096268,0.988220,0.141891,-2.830625,-1.416587,-3.049170,-0.049270,0.000087,-0.004340,-0.224898,0.815234,0.041751,338.435486,339.530029,10.000000,13.440792,40.316780,39.162163
461773370.739288,-0.083771,0.992905,0.115128,-2.830731,-1.410048,-3.074623,-0.045585,0.012190,-0.030071,-0.238468,0.742852,0.035049,339.915863,341.010406,10.000000,12.234859,40.557167,39.593315
461773370.772664,-0.067551,1.004028,0.096573,-2.827538,-1.402542,-3.094591,-0.025676,0.033256,-0.051406,-0.247124,0.691270,0.020856,341.485901,342.580444,10.000000,11.442389,39.904747,39.891815
461773370.806088,-0.068130,0.999069,0.087265,-2.819689,-1.396237,-3.109019,-0.007173,0.011123,-0.072072,-0.179714,0.657807,0.016825,343.842896,344.937439,10.000000,10.098631,38.840279,40.853622
461773370.839292,-0.071930,0.980972,0.078522,-2.810297,-1.392113,-3.119203,-0.004185,0.016456,-0.078012,-0.118462,0.576453,0.002244,344.409027,345.503571,10.000000,9.857445,38.874626,40.687790
461773370.872667,-0.092468,1.020813,0.105240,-2.802835,-1.391204,-3.126775,-0.026027,0.023774,-0.078343,0.026792,0.364862,0.029863,346.003418,347.097961,10.000000,9.030523,38.599907,41.218445
461773370.905878,-0.067825,0.991623,0.131516,-2.760137,-1.399263,-3.092185,-0.019616,0.030926,-0.044411,0.062188,0.143517,-0.018960,346.683746,347.778290,10.000000,8.582607,39.320992,41.052605
461773370.939347,-0.048187,0.993988,0.149872,-2.733282,-1.408590,-3.063781,-0.003702,0.004750,-0.016705,0.115420,-0.180769,-0.032441,347.243805,348.338348,10.000000,8.513695,39.046288,41.251602
461773370.972758,-0.028641,1.004623,0.201706,-2.733211,-1.414467,-3.055328,0.024583,0.010928,0.027414,0.179456,-0.296160,0.011906,347.386230,348.480774,10.000000,8.582603,39.389687,41.317940
461773371.005865,-0.002914,0.986740,0.238083,-2.754023,-1.418296,-3.061518,0.042078,-0.003485,0.109418,0.048008,-0.090541,0.023524,346.860016,347.954559,10.000000,9.099432,39.561363,41.417435
461773371.039208,-0.012177,0.967316,0.213623,-2.759828,-1.418204,-3.072301,0.044453,-0.021065,0.072565,-0.032540,0.289310,0.072805,346.519012,347.613556,10.000000,9.202797,39.870399,41.317940
461773371.072619,-0.037277,1.013397,0.179947,-2.765935,-1.417367,-3.091831,0.033274,0.014143,0.042400,-0.100235,0.440576,0.074441,346.379913,347.474457,10.000000,8.892702,39.767387,41.417435
461773371.105932,-0.077011,1.011719,0.145828,-2.775837,-1.414289,-3.116603,-0.019921,0.026047,0.013346,-0.119044,0.461435,0.058229,346.494476,347.589020,10.000000,8.754881,38.943260,41.351105
461773371.139219,-0.065796,1.008743,0.122330,-2.770544,-1.412767,-3.118383,-0.019949,0.024179,-0.000835,-0.110226,0.406090,0.045418,346.994415,348.088959,10.000000,8.306963,38.702904,41.251610
461773371.172754,-0.086914,1.024643,0.102371,-2.779507,-1.406573,3.139203,-0.032406,0.027554,-0.052926,-0.096241,0.299283,0.050249,347.003815,348.098358,10.000000,8.169140,38.565559,41.649605
461773371.205934,-0.112350,0.973450,0.103439,-2.782421,-1.405864,3.131847,-0.029203,0.038213,-0.051337,-0.058693,0.250055,0.055907,347.689056,348.783600,10.000000,7.721220,39.217979,42.213432
461773371.239240,-0.137512,1.001923,0.105743,-2.787438,-1.406197,3.117216,-0.062071,-0.006504,-0.055345,0.055410,0.011546,0.072577,348.197388,349.291931,10.000000,7.548946,39.114967,42.644592
461773371.272764,-0.134827,0.990204,0.132492,-2.791490,-1.408067,3.115100,-0.091739,0.016690,-0.034035,0.110659,-0.157234,0.043084,348.317841,349.412384,10.000000,7.548946,39.183632,42.710922
461773371.305955,-0.129242,0.989609,0.148178,-2.760712,-1.409426,-3.130860,-0.073390,0.008658,-0.014284,0.023129,-0.109210,0.006515,348.799988,349.894531,10.000000,7.307760,39.217964,42.943085
461773371.339217,-0.115234,1.003754,0.149231,-2.731473,-1.408870,-3.101972,-0.060612,0.009511,0.003502,0.042558,0.072161,-0.019574,348.909576,350.004120,10.000000,7.204397,39.870369,43.108917
461773371.372597,-0.073975,0.990448,0.157364,-2.712841,-1.407888,-3.085057,-0.028260,0.015239,0.011671,-0.013536,0.014562,-0.048720,349.316864,350.411407,10.000000,6.790936,39.733025,42.976250
461773371.404968,-0.043518,1.001297,0.157806,-2.717618,-1.406475,-3.089532,0.023869,0.009167,0.006525,-0.040926,0.014775,-0.034279,348.870331,349.964874,10.000000,7.135489,39.939049,42.511917
461773371.439252,-0.051682,0.997574,0.149445,-2.713482,-1.405314,-3.088024,0.020337,0.012547,0.005290,-0.026275,0.168192,-0.019835,348.577087,349.671631,10.000000,7.307762,39.630013,42.080757
461773371.472603,-0.082245,0.988739,0.134445,-2.706263,-1.404581,-3.089854,0.006998,0.005573,-0.011287,-0.026524,0.314394,0.009207,348.298553,349.393097,10.000000,7.480038,39.664360,41.914925
461773371.505943,-0.118271,1.009995,0.139862,-2.701861,-1.404006,-3.095066,-0.022375,-0.000481,-0.014894,-0.026387,0.270269,0.019409,348.439575,349.534119,10.000000,7.376671,39.286659,41.948090
461773371.539349,-0.100632,1.007721,0.137436,-2.682418,-1.402778,-3.082788,-0.040202,0.026106,-0.010594,-0.043793,0.179243,-0.031080,349.916962,351.011505,10.000000,6.343014,39.217995,42.279755
461773371.572623,-0.076859,0.990692,0.137299,-2.668804,-1.401172,-3.073504,-0.006853,0.012032,-0.017145,-0.047353,0.099455,-0.036423,350.219421,351.313965,10.000000,6.170738,39.389687,42.246590
461773371.606039,-0.101410,1.005142,0.145599,-2.662075,-1.401020,-3.070532,-0.004020,0.011524,-0.009830,0.005052,0.149761,0.004954,351.481171,352.575714,10.000000,5.205992,39.733070,42.511917
461773371.639675,-0.092758,1.001694,0.141907,-2.630389,-1.401713,-3.052088,-0.022776,0.017846,-0.004538,0.032146,0.296891,0.004886,351.205017,352.299561,10.000000,5.619457,39.733055,42.710922
461773371.672565,-0.068253,0.999817,0.140839,-2.608783,-1.402391,-3.038315,0.002634,0.014177,-0.003340,0.016062,0.189968,-0.035664,351.360718,352.455261,10.000000,5.481636,39.664391,42.777252
461773371.705936,-0.039459,1.001740,0.147232,-2.613168,-1.404150,-3.045590,0.034848,0.011320,-0.001649,0.013957,0.036606,-0.032907,351.930267,353.024811,10.000000,5.137083,39.733040,42.843582
461773371.739238,-0.057190,0.994354,0.159576,-2.636900,-1.407083,-3.069969,0.036344,0.015095,0.012885,0.056328,0.073342,-0.018253,353.033691,354.128235,10.000000,4.241249,40.007759,42.710922
461773371.772565,-0.063080,0.988434,0.159470,-2.623585,-1.409414,-3.061573,0.019366,-0.001059,0.019028,0.094810,0.187450,0.008965,353.566040,354.660583,10.000000,3.965606,39.733040,42.909920
461773371.805983,-0.063675,1.006836,0.171173,-2.618725,-1.411253,-3.060622,0.013827,0.007894,0.026848,0.041417,0.063661,-0.006063,354.053772,355.148315,10.000000,3.621053,39.389687,42.511917
461773371.839265,-0.058304,0.995621,0.158142,-2.628934,-1.409244,-3.070967,0.012689,0.013525,0.027568,-0.004760,0.009669,-0.043676,353.957001,355.051544,10.000000,3.758870,39.252327,42.113922
461773371.872555,-0.046509,0.993927,0.145020,-2.635079,-1.407797,-3.078426,0.026602,0.009715,0.008076,-0.017389,0.062475,-0.049154,353.761078,354.855621,10.000000,3.862236,39.424019,42.014420
461773371.905953,-0.081177,1.003220,0.147552,-2.646060,-1.408344,-3.089633,0.025057,0.009565,-0.001171,-0.000821,-0.025718,-0.006640,353.760559,354.855103,10.000000,3.827782,39.801750,42.047592
461773371.939232,-0.104202,1.002960,0.145828,-2.643673,-1.408789,-3.087206,-0.022161,0.022662,0.011591,0.040149,0.041559,-0.013099,354.232300,355.326843,10.000000,3.586598,39.698738,42.876755
461773371.972742,-0.074844,0.988510,0.136581,-2.617604,-1.406435,-3.058987,0.007022,0.001987,-0.005088,-0.004333,-0.223660,-0.073040,354.332550,355.427094,10.000000,3.483232,39.870430,42.777252
461773372.005894,-0.052063,1.007645,0.146103,-2.619992,-1.405545,-3.051530,0.033229,0.008832,-0.001863,0.006036,-0.315457,-0.019585,353.444092,354.538635,10.000000,4.447979,39.458382,42.777252
461773372.039258,-0.079086,1.000458,0.145096,-2.623719,-1.406976,-3.048831,0.000336,0.033545,0.014241,0.054105,-0.089924,-0.031216,352.536835,353.631378,10.000000,4.964804,39.561409,42.014420
461773372.072172,-0.072189,0.980194,0.129776,-2.619228,-1.407047,-3.039850,0.009146,-0.006429,-0.011503,0.030731,-0.238360,-0.039674,352.398987,353.493530,10.000000,4.723619,39.733101,42.113922
461773372.106005,-0.063934,0.997452,0.158569,-2.627681,-1.408589,-3.034520,0.016646,0.000081,0.005085,0.054019,-0.526601,0.008523,352.614563,353.709106,10.000000,4.516888,39.939125,42.047592
461773372.139252,-0.090714,1.004349,0.181168,-2.645437,-1.409145,-3.036586,0.000997,0.018546,0.047454,0.020004,-0.374219,0.017728,351.808258,352.902802,10.000000,5.137083,39.939125,41.981255
461773372.172610,-0.087967,0.986359,0.152527,-2.650532,-1.409519,-3.035512,-0.012244,-0.000664,0.010923,0.014393,-0.132509,0.003072,350.695557,351.790100,10.000000,5.826185,40.351158,41.782257
461773372.205862,-0.086197,0.991104,0.134140,-2.657501,-1.409132,-3.035504,-0.011438,-0.000663,-0.008402,-0.026440,-0.293186,-0.013939,350.152435,351.246979,10.000000,6.170738,40.557182,41.782257
461773372.239267,-0.100479,1.005798,0.142365,-2.668541,-1.408149,-3.034531,-0.022079,0.009231,-0.002806,-0.027427,-0.393783,-0.008068,349.161041,350.255585,10.000000,6.859840,40.419838,41.715927
461773372.273158,-0.091934,1.000854,0.126404,-2.673365,-1.407316,-3.028487,-0.027913,0.031964,-0.003558,-0.011500,-0.288616,-0.036074,348.119812,349.214355,10.000000,7.617855,40.213814,41.715927
461773372.305872,-0.079117,0.991119,0.116470,-2.670296,-1.405790,-3.016071,-0.006810,0.006274,-0.025548,-0.037698,-0.332877,-0.072439,347.739410,348.833954,10.000000,7.927954,39.904778,41.948090
461773372.339253,-0.081757,1.013260,0.136612,-2.673807,-1.405214,-3.005352,0.000241,0.018377,-0.021966,0.017623,-0.482706,-0.046123,347.362701,348.457245,10.000000,7.927954,40.316826,41.550095
461773372.372622,-0.108719,0.988693,0.130386,-2.674132,-1.406303,-2.991310,-0.014970,0.023234,-0.008062,0.036162,-0.391917,-0.035910,346.643097,347.737640,10.000000,8.444784,40.351143,41.583260
461773372.406042,-0.115753,0.985809,0.128021,-2.658723,-1.407457,-2.965799,-0.033214,0.002003,-0.013635,0.077007,-0.258353,-0.039392,346.026825,347.121368,10.000000,8.651512,40.419807,40.986267
461773372.439258,-0.111496,0.994995,0.132050,-2.629136,-1.408865,-2.929045,-0.032154,0.006292,-0.014172,0.074564,-0.245972,-0.021276,345.283051,346.377594,10.000000,9.271709,40.351143,41.251595
461773372.472610,-0.117081,1.007446,0.151154,-2.618233,-1.409659,-2.907299,-0.034070,0.011124,-0.000126,0.055009,-0.391845,-0.006578,345.261871,346.356415,10.000000,9.099434,39.973427,40.886765
461773372.505925,-0.095963,1.006561,0.150116,-2.611750,-1.409781,-2.888541,-0.036055,0.020381,0.012815,0.061094,-0.348997,-0.020403,344.505981,345.600525,10.000000,9.581808,39.767403,40.356110
461773372.539309,-0.091629,0.989334,0.132217,-2.609902,-1.409251,-2.876668,-0.000775,0.000782,-0.001676,0.014807,-0.297269,-0.024943,344.191559,345.286102,10.000000,9.650719,39.767418,40.024452
461773372.572195,-0.105896,0.999619,0.130905,-2.606004,-1.410270,-2.862985,-0.019989,0.009210,-0.003789,0.080913,-0.296332,-0.023235,342.538513,343.633057,10.000000,10.684374,40.179482,39.493790
461773372.605910,-0.080582,0.996597,0.135544,-2.586975,-1.411369,-2.834702,-0.022294,0.012300,-0.004051,0.083267,-0.311369,-0.077988,342.067932,343.162476,10.000000,11.132292,40.282478,39.991287
461773372.639946,-0.029861,0.993927,0.142868,-2.590513,-1.411304,-2.813017,0.044935,0.005307,0.003930,0.009217,-0.655944,-0.088520,341.387482,342.482025,10.000000,11.683575,40.488518,39.924957
461773372.672632,-0.026276,1.004242,0.150818,-2.598395,-1.410754,-2.798701,0.058322,0.006294,0.012718,0.044243,-0.653460,-0.054116,341.065430,342.159973,10.000000,11.786940,40.454185,39.692795
461773372.705939,-0.039032,1.005096,0.140091,-2.604903,-1.412423,-2.787738,0.045389,0.016757,0.010015,0.086244,-0.460882,-0.037405,339.707520,340.802063,10.000000,12.372679,40.763252,38.863632
461773372.739391,-0.055557,0.997711,0.128036,-2.608982,-1.413747,-2.776244,0.025846,0.016976,-0.004124,0.038958,-0.520862,-0.048140,339.288116,340.382660,10.000000,12.476046,40.866249,38.764145
461773372.772635,-0.105820,0.995697,0.140335,-2.617302,-1.414896,-2.765683,-0.004044,0.003964,-0.003935,0.087879,-0.608090,-0.024933,337.579773,338.674316,10.000000,13.578615,41.003609,38.299812
461773372.805962,-0.118393,1.005737,0.138824,-2.616048,-1.417370,-2.746661,-0.034963,0.013028,0.009766,0.120023,-0.490425,-0.025867,336.086731,337.181274,10.000000,14.646727,40.831917,38.133972
461773372.839346,-0.129608,1.000107,0.117691,-2.612650,-1.419705,-2.727939,-0.051106,0.018335,-0.003894,0.086205,-0.468338,-0.054406,335.339081,336.433624,10.000000,14.853460,40.694572,37.536987
461773372.872582,-0.127747,0.994034,0.106537,-2.608753,-1.420678,-2.707918,-0.058673,-0.002425,-0.021232,0.078739,-0.512629,-0.080862,334.224976,335.319519,10.000000,15.542562,40.557213,37.205330
461773372.905975,-0.107941,1.006409,0.106812,-2.601474,-1.421033,-2.683379,-0.043101,0.013376,-0.022618,0.046329,-0.539562,-0.095481,332.880920,333.975464,10.000000,16.231667,40.831902,36.409348
461773372.939269,-0.079330,0.996216,0.118210,-2.597248,-1.420471,-2.660275,-0.011755,0.015916,-0.017519,0.025297,-0.603259,-0.091349,331.969635,333.064178,10.000000,16.920773,40.900581,36.276680
461773372.972589,-0.083633,0.995468,0.133957,-2.586917,-1.422043,-2.625845,-0.004175,0.004513,0.009848,0.120857,-0.344507,-0.048057,330.996857,332.091400,10.000000,17.196413,40.969246,35.613358
461773373.005942,-0.081390,1.004196,0.134781,-2.577944,-1.424042,-2.607929,-0.005065,0.010703,0.012973,0.082027,-0.243578,-0.026181,330.337952,331.432495,10.000000,17.161955,40.522865,34.850533
461773373.039277,-0.089798,0.999832,0.128754,-2.575074,-1.424833,-2.601004,-0.003330,0.014830,0.012058,0.074559,-0.249681,-0.026177,329.930084,331.024628,10.000000,17.644329,40.591545,35.115860
461773373.072620,-0.096817,1.001129,0.128845,-2.562252,-1.426003,-2.576751,-0.018464,0.008313,0.007949,0.055736,-0.179547,-0.008741,329.473358,330.567902,10.000000,17.782148,41.072273,34.784203
461773373.105928,-0.077621,0.999924,0.125259,-2.555236,-1.426123,-2.564095,-0.007553,0.009760,0.000747,0.036996,-0.175820,-0.016253,328.629456,329.723999,10.000000,18.402342,41.346992,34.651543
461773373.139261,-0.071869,0.983521,0.123978,-2.556731,-1.426970,-2.560329,0.005156,0.001307,0.006286,0.043201,-0.132771,0.006547,327.837585,328.932129,10.000000,18.574621,41.518684,33.888725
461773373.172302,-0.087158,1.007172,0.131073,-2.559377,-1.427878,-2.561114,0.005734,-0.001355,0.006553,0.069384,-0.103323,0.027198,328.197327,329.291870,10.000000,18.436800,41.450005,34.353050
461773373.205927,-0.094666,0.994476,0.120148,-2.563174,-1.429458,-2.564202,-0.015242,0.007027,0.010373,0.034208,0.015943,0.039149,328.762909,329.857452,10.000000,17.885519,41.656013,34.419388
461773373.239255,-0.085464,0.996368,0.120911,-2.560961,-1.430376,-2.562874,-0.013954,0.009782,0.004057,0.032933,0.035618,0.045029,328.688446,329.782990,10.000000,17.782152,41.553001,34.120895
461773373.272831,-0.081787,1.001526,0.126953,-2.568666,-1.431583,-2.571164,-0.004107,0.000489,0.006380,0.008151,-0.004654,0.065978,328.115662,329.210205,10.000000,18.126705,41.415657,33.656570
461773373.305967,-0.094833,0.993011,0.121567,-2.575822,-1.431642,-2.580067,-0.014069,0.013588,0.013996,0.004158,0.116564,0.050209,327.633423,328.727966,10.000000,18.333433,41.484322,33.391243
461773373.339267,-0.097549,0.989746,0.113998,-2.572989,-1.431592,-2.583248,-0.018792,-0.005997,-0.001429,-0.003531,0.202502,0.049280,327.741119,328.835663,10.000000,18.609076,41.553001,33.988228
461773373.372538,-0.092743,1.002731,0.111313,-2.567067,-1.431532,-2.583303,-0.022998,0.011650,0.001560,-0.014732,0.171788,0.033624,327.758881,328.853424,10.000000,18.643530,41.724693,34.353050
461773373.405925,-0.093201,1.005432,0.097427,-2.564452,-1.430961,-2.585419,-0.017700,0.013820,-0.005843,-0.033416,0.142334,0.017903,328.564850,329.659393,10.000000,18.643530,41.312630,35.082703
461773373.439257,-0.107117,1.016861,0.093842,-2.554217,-1.431132,-2.582178,-0.025925,0.021319,-0.023472,-0.011211,0.268704,0.029002,329.139587,330.234131,10.000000,18.298977,41.312630,35.149040
461773373.472782,-0.080017,1.006256,0.085327,-2.530476,-1.431951,-2.568817,-0.022609,0.022380,-0.024834,0.012213,0.329721,-0.015363,329.598785,330.693329,10.000000,17.816603,41.106606,35.082710
461773373.505932,-0.046371,0.996521,0.100418,-2.510670,-1.432766,-2.556111,0.014483,0.013036,-0.026371,-0.001065,0.124732,-0.034160,330.056671,331.151215,10.000000,17.437597,41.621681,35.049545
461773373.539292,-0.054260,0.998169,0.117447,-2.510404,-1.434848,-2.557349,0.033605,0.005748,-0.008999,0.044197,0.049965,0.020633,330.965729,332.060272,10.000000,16.782946,41.518669,35.082703
461773373.572548,-0.067459,1.002365,0.133118,-2.505749,-1.437787,-2.557774,0.023595,0.005735,0.022771,0.077503,0.243869,0.048243,331.056488,332.151031,10.000000,17.093044,41.415642,35.513863
461773373.605937,-0.089386,0.996750,0.127075,-2.500438,-1.440226,-2.562476,-0.002356,0.011411,0.029629,0.058572,0.333530,0.045989,331.282166,332.376709,10.000000,16.920769,41.312614,35.348030
461773373.639436,-0.073685,0.999817,0.122513,-2.494904,-1.440960,-2.567001,-0.011373,0.005167,0.023746,-0.012481,0.289563,0.026362,331.657410,332.751953,10.000000,16.955227,41.690331,35.779190
461773373.672525,-0.027908,0.996780,0.112061,-2.520719,-1.439607,-2.602604,0.036274,0.008334,0.007309,-0.084360,0.110777,0.038595,332.407623,333.502167,10.000000,16.300579,42.068047,35.812363
461773373.705943,-0.014938,1.009171,0.107315,-2.553763,-1.439491,-2.639650,0.059317,0.011446,0.000042,-0.076868,0.161275,0.078435,333.042908,334.137451,10.000000,15.956026,41.930687,36.144012
461773373.739304,-0.025467,1.004868,0.098206,-2.578162,-1.440690,-2.673429,0.047091,0.017546,-0.007299,-0.024861,0.374796,0.118200,333.725189,334.819733,10.000000,15.301374,41.690315,35.978180
461773373.772630,-0.034592,1.011398,0.098129,-2.597206,-1.443410,-2.706021,0.035567,0.015549,-0.009694,0.005092,0.395636,0.138971,333.851013,334.945557,10.000000,15.439192,41.278267,36.309845
461773373.805178,-0.037399,1.003174,0.103836,-2.615808,-1.446219,-2.734215,0.028427,0.013167,-0.005467,0.023008,0.202884,0.139809,333.832245,334.926788,10.000000,15.577013,41.346931,36.508842
461773373.839230,-0.035019,1.008209,0.118454,-2.649440,-1.450241,-2.771057,0.018085,0.008570,0.001111,0.044538,0.049323,0.129323,333.784363,334.878906,10.000000,15.887108,41.518623,36.807343
461773373.872645,-0.026093,0.996597,0.119186,-2.684592,-1.453193,-2.808301,0.022263,0.009379,0.014383,0.036908,0.076232,0.107057,333.945923,335.040466,10.000000,15.714834,41.278267,36.774178
461773373.906002,-0.016113,0.996017,0.131821,-2.724794,-1.455114,-2.849887,0.028082,0.000504,0.019976,0.010904,0.003990,0.116140,333.933380,335.027924,10.000000,15.783745,41.278267,36.774178
461773373.939276,-0.026886,1.009140,0.137695,-2.776275,-1.455679,-2.900900,0.027057,0.010952,0.026628,-0.023987,-0.005634,0.123312,334.231171,335.325714,10.000000,15.749294,40.900551,37.205338
461773373.972826,-0.035385,1.004425,0.135559,-2.843018,-1.453840,-2.972917,-0.001060,0.011257,0.024032,-0.051874,0.181065,0.129794,333.889069,334.983612,10.000000,15.749296,41.312614,36.674683
461773374.006009,-0.042389,1.004211,0.112213,-2.877722,-1.452063,-3.013736,-0.009846,0.011328,0.004527,-0.090493,0.166539,0.134521,333.780518,334.875061,10.000000,15.714840,41.003578,36.508858
461773374.039265,-0.067474,1.005920,0.100739,-2.891795,-1.450999,-3.030480,-0.013577,0.009929,-0.004931,-0.112926,0.150647,0.127182,333.753906,334.848450,10.000000,15.921568,40.522835,35.978203
461773374.072604,-0.077667,1.005753,0.092957,-2.912177,-1.447465,-3.061728,-0.049692,0.013348,-0.026839,-0.092190,0.288982,0.080790,333.583954,334.678497,10.000000,16.059389,40.385490,37.105850
461773374.105508,-0.050430,1.008621,0.072968,-2.915585,-1.445542,-3.073072,-0.030584,0.021872,-0.042374,-0.104537,0.153703,0.018594,333.992828,335.087372,10.000000,15.956022,40.282478,37.735992
461773374.139260,-0.028061,1.007996,0.076431,-2.924726,-1.441952,-3.081918,-0.008791,0.009189,-0.053473,-0.107684,-0.108951,0.011428,334.531921,335.626465,10.000000,15.714836,40.179451,38.167160
461773374.172625,-0.020859,1.017349,0.081085,-2.927391,-1.441642,-3.082756,-0.000683,0.016324,-0.049420,-0.069021,-0.109143,0.008063,335.229767,336.324310,10.000000,14.922365,39.801750,37.669662
461773374.205939,-0.040466,1.005402,0.086670,-2.930104,-1.442517,-3.084514,-0.006731,0.016014,-0.040254,0.004311,0.013280,0.013503,335.178223,336.272766,10.000000,14.956820,40.248131,37.702827
461773374.239263,-0.069519,1.005310,0.094177,-2.915322,-1.445379,-3.070580,-0.028486,0.002788,-0.030301,0.049133,0.027695,-0.007057,335.260284,336.354828,10.000000,14.784544,40.076439,37.536995
461773374.272619,-0.072754,1.013351,0.097763,-2.883264,-1.447356,-3.038919,-0.043115,0.017314,-0.024132,0.020410,-0.017857,-0.058094,334.874969,335.969513,10.000000,15.335827,40.076424,37.934990
461773374.305893,-0.057846,1.004898,0.103867,-2.861127,-1.447532,-3.015776,-0.033593,0.018787,-0.019485,-0.004364,-0.090516,-0.087995,335.286865,336.381409,10.000000,15.129097,39.733040,38.067657
461773374.339252,-0.062149,1.008286,0.103973,-2.808786,-1.446861,-2.958844,-0.024617,0.017741,-0.011549,0.025307,0.003760,-0.104594,335.345154,336.439697,10.000000,15.129097,40.007759,38.067657
461773374.372865,-0.062134,1.009338,0.098083,-2.764450,-1.446376,-2.916990,-0.015852,0.014826,-0.015449,0.001297,0.101896,-0.132608,335.432465,336.527008,10.000000,14.853456,40.007759,37.669662
461773374.405973,-0.049927,1.005630,0.091751,-2.720301,-1.444797,-2.874447,-0.005113,0.016091,-0.021844,-0.027266,0.015964,-0.161258,335.529968,336.624512,10.000000,14.612270,40.316811,37.238503
461773374.439279,-0.060806,1.007095,0.100464,-2.683089,-1.443488,-2.835749,0.004911,0.010183,-0.019659,-0.010861,-0.056511,-0.160408,335.447113,336.541656,10.000000,14.612270,40.522835,37.039505
461773374.472587,-0.063660,1.009872,0.111816,-2.642249,-1.442616,-2.794440,0.001183,0.016444,-0.008599,0.050045,0.034035,-0.159625,335.852203,336.946747,10.000000,14.681181,40.797554,37.304840
461773374.505967,-0.056900,1.003021,0.114441,-2.595922,-1.442012,-2.749027,0.002994,0.018154,0.002039,0.057521,0.019202,-0.172839,335.835327,336.929871,10.000000,14.508904,40.831871,37.470665
461773374.539275,-0.048630,0.991821,0.124374,-2.564833,-1.439856,-2.715767,0.019289,0.009323,0.007498,0.004250,-0.114255,-0.159708,335.850098,336.944641,10.000000,14.336630,40.866219,37.503830
461773374.571702,-0.057022,1.009186,0.147186,-2.551450,-1.437976,-2.698054,0.023875,0.004093,0.020630,0.036732,-0.111828,-0.137504,335.870117,336.964661,10.000000,14.336630,40.866203,37.172165
461773374.605976,-0.053345,0.998901,0.152222,-2.531834,-1.435927,-2.675413,0.019980,0.018267,0.036957,0.031575,-0.064007,-0.148988,335.892181,336.986725,10.000000,14.405540,40.934883,37.105827
461773374.639360,-0.058212,0.991730,0.155090,-2.534533,-1.428475,-2.674446,0.025052,-0.001623,0.038729,-0.094469,-0.000680,-0.117615,335.895905,336.990448,10.000000,14.577816,40.831856,37.271660
461773374.672596,-0.082809,1.007889,0.152054,-2.536680,-1.423500,-2.680661,0.015211,0.016032,0.034186,-0.083679,0.212958,-0.090369,335.930450,337.024994,10.000000,13.854256,41.346916,37.105827
461773374.705939,-0.084564,1.001404,0.146194,-2.529619,-1.417882,-2.681421,0.002925,0.018306,0.024189,-0.126262,0.241212,-0.120253,335.984955,337.079498,10.000000,13.578615,41.758965,37.304825
461773374.739465,-0.055115,0.997040,0.133224,-2.529632,-1.411490,-2.687916,0.028249,0.006391,0.005501,-0.165999,0.183785,-0.106552,336.019745,337.114288,10.000000,13.475248,41.449913,37.205330
461773374.772641,-0.061142,1.010910,0.139755,-2.539195,-1.407369,-2.702198,0.045665,0.017277,-0.000105,-0.127062,0.131086,-0.060563,337.102051,338.196594,10.000000,13.716436,41.140877,37.636490
461773374.805981,-0.064209,1.001617,0.142685,-2.544009,-1.404946,-2.712006,0.027611,0.022984,0.006083,-0.067323,0.181123,-0.061804,337.980072,339.074615,10.000000,13.130697,40.694496,37.934982
461773374.839211,-0.046265,0.996719,0.140793,-2.548268,-1.402928,-2.720699,0.039830,0.014240,0.002314,-0.074534,0.085506,-0.047465,338.276703,339.371246,10.000000,12.786146,40.900520,37.802322
461773374.871632,-0.050339,0.993195,0.149887,-2.566230,-1.402485,-2.739229,0.049985,0.010454,0.004335,-0.054252,-0.006447,-0.013415,338.735596,339.830139,10.000000,12.579414,40.763176,38.200310
461773374.905999,-0.060257,1.001251,0.146286,-2.582310,-1.402095,-2.755974,0.030354,0.011663,0.006606,-0.039374,0.061104,0.009230,338.685974,339.780518,10.000000,12.682781,40.934853,38.233475
461773374.939242,-0.070419,1.002762,0.144440,-2.590777,-1.402233,-2.766972,0.022132,0.022138,0.004142,-0.025701,0.073286,0.004350,339.146484,340.241028,10.000000,12.407137,40.866203,38.697800
461773374.971941,-0.063782,0.998428,0.131256,-2.598814,-1.401749,-2.776783,0.018633,0.012362,-0.002003,-0.050549,0.043983,0.011784,339.149139,340.243683,10.000000,12.372683,40.900520,38.598312
461773375.005929,-0.063126,1.001053,0.129028,-2.611714,-1.403015,-2.790828,0.021278,0.015095,-0.015066,-0.000469,-0.011387,0.027381,338.916077,340.010620,10.000000,12.579414,40.694496,38.531975
461773375.039243,-0.071960,1.003998,0.134949,-2.619909,-1.404760,-2.797558,0.013637,0.019734,-0.008967,0.012146,-0.062966,0.031663,338.312561,339.407104,10.000000,12.992876,41.312569,38.465645
461773375.072596,-0.089050,0.989624,0.138870,-2.625089,-1.406340,-2.800125,-0.006354,0.008167,-0.004725,0.027189,-0.102344,0.024853,338.317291,339.411835,10.000000,12.820599,41.346916,38.631477
461773375.106145,-0.088242,1.001678,0.148712,-2.628229,-1.407544,-2.798148,-0.008423,0.014974,0.007135,0.036126,-0.203065,0.016161,338.361115,339.455658,10.000000,12.338224,41.278267,39.162125
461773375.139270,-0.073334,0.998108,0.156448,-2.634864,-1.407783,-2.797786,0.002806,0.015958,0.012582,0.007367,-0.204283,-0.006007,338.435333,339.529877,10.000000,12.441591,40.694527,39.261627
461773375.172578,-0.072998,0.992554,0.144272,-2.643732,-1.407912,-2.801849,0.009372,0.008552,0.006812,0.013441,-0.103542,0.018661,338.460327,339.554871,10.000000,12.579412,40.831856,39.394287
461773375.206274,-0.099686,1.007919,0.136658,-2.647995,-1.408746,-2.804490,-0.011829,0.016672,-0.002404,0.013280,-0.026189,0.025211,338.203308,339.297852,10.000000,13.337425,41.106575,39.195297
461773375.239271,-0.101212,0.995102,0.131653,-2.647756,-1.409022,-2.803773,-0.019813,0.022502,-0.001429,0.010787,-0.039730,0.015563,337.883972,338.978516,10.000000,13.302971,40.934914,38.830460
461773375.272614,-0.074707,0.992493,0.127823,-2.640091,-1.408712,-2.790971,-0.010814,0.005722,-0.011026,0.000963,-0.145400,-0.016419,337.255341,338.349884,10.000000,13.613070,40.351173,38.200302
461773375.305861,-0.081268,1.008606,0.126099,-2.644637,-1.409790,-2.790377,0.004362,0.017725,-0.014501,0.008695,-0.162627,0.016791,337.108459,338.203003,10.000000,13.681978,40.282509,38.133980
461773375.339265,-0.095535,1.000626,0.127914,-2.647535,-1.411549,-2.788311,-0.011748,0.017994,-0.009684,0.044846,-0.154205,0.015762,336.834839,337.929382,10.000000,13.819799,40.419838,38.133980
461773375.372620,-0.076385,1.002197,0.131363,-2.639407,-1.413331,-2.775119,-0.015766,0.016019,-0.009875,0.060996,-0.174105,-0.019306,336.515747,337.610291,10.000000,13.854256,40.866219,37.901810
461773375.405934,-0.080383,0.997208,0.144394,-2.639832,-1.414496,-2.767084,0.007701,0.011198,-0.002948,0.027683,-0.319975,-0.015666,336.416473,337.511017,10.000000,13.716436,41.003563,37.503815
461773375.439231,-0.086868,0.999222,0.143433,-2.643860,-1.415494,-2.761582,-0.014774,0.011669,0.007841,0.067398,-0.226835,-0.006531,336.303009,337.397552,10.000000,14.129900,40.866219,37.371147
461773375.472739,-0.074799,0.998672,0.128647,-2.639798,-1.416244,-2.751906,-0.003699,0.013110,-0.000317,0.022358,-0.182514,-0.018300,335.318787,336.413330,10.000000,14.439995,40.419838,36.939987
461773375.505885,-0.095200,1.005981,0.135254,-2.641142,-1.416655,-2.745069,-0.005541,0.008774,-0.002211,0.022633,-0.296642,-0.017161,334.934937,336.029480,10.000000,14.853456,40.351158,37.205315
461773375.539212,-0.087494,1.001373,0.128586,-2.633774,-1.416746,-2.729265,-0.020585,0.017824,0.001176,0.042268,-0.219644,-0.059268,334.217590,335.312134,10.000000,15.232460,40.660210,36.973152
461773375.572533,-0.048431,1.000107,0.125183,-2.623366,-1.416611,-2.710132,0.012641,0.012031,-0.010532,0.018792,-0.336226,-0.077808,333.425476,334.520020,10.000000,15.577013,41.209602,36.641495
461773375.605827,-0.092758,1.009155,0.137360,-2.627731,-1.417543,-2.700785,0.022058,0.013780,-0.003697,0.052816,-0.438061,-0.044799,333.198029,334.292572,10.000000,15.645926,41.140938,36.508835
461773375.639089,-0.102463,1.010361,0.131866,-2.618044,-1.420068,-2.676484,-0.027390,0.021699,0.001822,0.082340,-0.220796,-0.012587,332.251648,333.346191,10.000000,16.231665,41.243935,36.210342
461773375.672474,-0.111526,0.988266,0.120743,-2.608727,-1.420745,-2.658272,-0.031572,0.009299,-0.005121,0.040133,-0.321313,-0.026563,331.997498,333.092041,10.000000,16.472851,40.866219,36.376167
461773375.705774,-0.128662,0.981720,0.131393,-2.596997,-1.421398,-2.636197,-0.044013,-0.016464,-0.002952,0.086116,-0.286062,-0.050977,331.252258,332.346802,10.000000,16.610670,41.140938,35.580185
461773375.739163,-0.116867,0.991562,0.128845,-2.579487,-1.421081,-2.611277,-0.046145,0.002001,0.006041,0.009700,-0.207433,-0.098714,331.257080,332.351624,10.000000,16.472851,41.346947,35.513847
461773375.772507,-0.082001,0.984619,0.131058,-2.573212,-1.418448,-2.596973,-0.001656,-0.006102,-0.001663,-0.043775,-0.246363,-0.080434,330.701569,331.796112,10.000000,16.851858,41.862007,35.414352
461773375.805819,-0.097382,1.012802,0.135635,-2.571808,-1.417277,-2.590464,-0.007566,0.017452,0.006175,0.014600,-0.067143,-0.024434,331.151062,332.245605,10.000000,16.576216,41.655998,35.679672
461773375.839291,-0.090118,1.005966,0.134262,-2.561066,-1.416968,-2.579781,-0.014123,0.024946,0.004875,0.023127,-0.000987,-0.038455,331.036926,332.131470,10.000000,16.714037,41.793343,35.812340
461773375.872618,-0.077133,0.989716,0.148117,-2.557207,-1.416362,-2.572117,-0.000954,-0.005372,0.005006,0.017320,-0.171497,-0.029482,331.240936,332.335480,10.000000,16.507307,41.656013,35.746002
461773375.905837,-0.063492,0.995697,0.143295,-2.564590,-1.415660,-2.573987,0.013764,0.006928,0.019183,0.002258,-0.137071,-0.029933,330.423218,331.517761,10.000000,17.265326,42.068062,35.746002
461773375.939410,-0.037170,1.008392,0.137665,-2.574382,-1.414819,-2.579299,0.028762,0.016199,0.015862,-0.021447,-0.136967,-0.030103,330.638214,331.732758,10.000000,16.955229,41.827705,35.712837
461773375.972620,-0.050751,1.014801,0.132919,-2.590688,-1.414375,-2.591359,0.044376,0.020601,0.004928,-0.031433,-0.118451,-0.018140,329.976501,331.071045,10.000000,17.299780,42.102394,35.447510
461773376.005831,-0.072433,1.007202,0.110565,-2.601339,-1.415561,-2.598936,0.007824,0.015107,-0.015649,-0.004223,-0.016701,-0.015262,329.947083,331.041626,10.000000,17.196413,41.862022,35.348007
461773376.039324,-0.069382,1.001221,0.107117,-2.599095,-1.417200,-2.594529,0.012489,0.013024,-0.028823,0.019751,-0.108773,-0.000733,329.465027,330.559570,10.000000,17.403143,41.999382,35.082687
461773376.072611,-0.087006,1.013184,0.117950,-2.597361,-1.420093,-2.587811,-0.009272,0.024518,-0.010493,0.057351,-0.171494,0.006285,329.484375,330.578918,10.000000,17.127501,42.136726,34.817352
461773376.105933,-0.074356,1.000183,0.116425,-2.590458,-1.421106,-2.575394,-0.005845,0.011610,-0.007467,0.033541,-0.171586,-0.030502,329.066254,330.160797,10.000000,17.299776,41.896370,34.518852
461773376.139269,-0.084442,1.013458,0.126175,-2.589292,-1.422340,-2.568080,0.003657,0.009138,-0.009541,0.043652,-0.184971,-0.001006,328.630890,329.725433,10.000000,17.678785,41.930717,34.419357
461773376.172592,-0.092133,1.000443,0.128098,-2.583230,-1.423866,-2.558029,-0.014370,0.019656,0.007699,0.045863,-0.075802,-0.009400,327.802979,328.897522,10.000000,18.161160,41.930717,34.087692
461773376.205991,-0.100540,0.996552,0.122223,-2.576085,-1.424297,-2.547774,-0.016888,0.005280,-0.003911,0.033557,-0.125986,0.004418,327.208649,328.303192,10.000000,18.298979,41.999397,33.557037
461773376.239256,-0.106949,0.998230,0.123947,-2.568203,-1.424441,-2.536170,-0.029714,0.009577,0.003650,0.024733,-0.101461,-0.006888,327.384583,328.479126,10.000000,17.851061,41.965050,33.258537
461773376.272619,-0.100525,1.004410,0.119553,-2.558238,-1.423676,-2.523533,-0.022587,0.013732,0.000883,0.002158,-0.073233,-0.025656,327.091736,328.186279,10.000000,17.954428,42.205421,33.026375
461773376.305911,-0.099655,0.998962,0.108932,-2.548837,-1.423282,-2.512389,-0.016569,0.009396,-0.012256,0.007102,-0.047463,-0.022223,327.170258,328.264801,10.000000,17.816607,42.411446,33.026375
461773376.339210,-0.100693,1.000153,0.116302,-2.534382,-1.423205,-2.496066,-0.019502,0.011314,-0.008540,0.017158,-0.060039,-0.035424,326.868469,327.963013,10.000000,18.298979,42.617485,33.291702
461773376.372616,-0.102661,1.007187,0.126328,-2.522024,-1.422871,-2.481347,-0.014315,0.015102,-0.001049,0.025906,-0.074836,-0.041317,326.879944,327.974487,10.000000,18.333433,42.377113,33.457535
461773376.405928,-0.088959,0.989502,0.122330,-2.510159,-1.421642,-2.468436,-0.014346,0.010462,0.007157,-0.001723,-0.012193,-0.054359,326.890747,327.985291,10.000000,18.126701,42.514473,33.457535
461773376.439206,-0.082184,0.997803,0.124115,-2.503946,-1.420284,-2.461523,0.006225,-0.003434,-0.000668,-0.014106,-0.019380,-0.032422,326.914520,328.009064,10.000000,18.057793,42.514473,33.324875
461773376.472624,-0.096298,1.006378,0.129471,-2.505285,-1.420234,-2.463134,-0.000957,0.015158,0.007015,0.003335,0.038419,0.003742,326.924957,328.019501,10.000000,18.057793,42.445793,33.391205
461773376.505949,-0.083405,0.985703,0.124710,-2.501371,-1.419474,-2.461313,-0.004233,0.010832,0.006885,-0.019278,0.065358,-0.025983,326.935547,328.030090,10.000000,18.471258,42.239754,33.722870
461773376.539280,-0.099442,1.001419,0.140182,-2.503630,-1.418442,-2.464212,0.007469,-0.006819,0.004046,-0.021548,-0.000786,-0.004598,326.954163,328.048706,10.000000,18.505713,41.862038,33.888702
461773376.572699,-0.102249,1.009399,0.145828,-2.506867,-1.417479,-2.468477,-0.008887,0.013149,0.017209,-0.019186,0.056900,-0.001496,326.962189,328.056732,10.000000,18.471258,41.896370,33.789200
461773376.605953,-0.083481,0.998032,0.124191,-2.508130,-1.414534,-2.472013,0.001393,0.010750,0.010386,-0.080444,0.069266,-0.035032,326.987518,328.082062,10.000000,17.988884,42.308434,33.722870
461773376.639273,-0.076477,0.998978,0.119781,-2.512084,-1.412660,-2.478434,0.017382,0.009014,-0.003009,-0.051739,0.087651,-0.015469,327.008453,328.102997,10.000000,17.713240,42.308434,33.391205
461773376.672608,-0.089676,1.001633,0.121567,-2.517251,-1.413047,-2.489524,0.008550,0.016033,-0.009433,-0.024254,0.115932,0.017413,327.024750,328.119293,10.000000,17.782148,42.171089,33.722870
461773376.705961,-0.089371,0.997025,0.128723,-2.520216,-1.412948,-2.494992,0.002171,0.009930,-0.001925,-0.032868,0.058254,0.010603,327.613281,328.707825,10.000000,18.057791,41.552986,33.855537
461773376.739304,-0.079147,1.000076,0.149033,-2.525787,-1.412419,-2.502082,0.009343,0.012775,0.008615,-0.027845,0.034882,0.004778,328.096283,329.190826,10.000000,17.954424,41.381310,34.220367
461773376.772656,-0.096359,1.003036,0.145630,-2.536576,-1.411599,-2.514526,0.004884,0.017406,0.023926,-0.024178,0.081576,0.018988,328.106049,329.200592,10.000000,17.609871,41.518669,34.220367
461773376.805989,-0.105316,0.999146,0.133362,-2.539034,-1.410138,-2.521774,-0.012136,0.011825,0.007456,-0.049423,0.188387,0.005528,328.137512,329.232056,10.000000,17.334230,41.862053,34.353035
461773376.839341,-0.099625,1.001282,0.107025,-2.533382,-1.408518,-2.522472,-0.014279,0.008728,-0.018580,-0.055652,0.172403,-0.005347,328.152924,329.247467,10.000000,17.678785,42.274101,34.353035
461773376.872585,-0.091385,1.003403,0.107300,-2.526555,-1.407937,-2.520062,-0.003615,0.017215,-0.027189,-0.036791,0.104792,-0.010632,328.600708,329.695251,10.000000,17.540966,42.136742,34.485695
461773376.905979,-0.092255,0.997726,0.115662,-2.519386,-1.408710,-2.515976,0.004074,0.012710,-0.018585,-0.008055,0.089939,-0.010262,329.177948,330.272491,10.000000,17.161955,42.033730,34.452530
461773376.939675,-0.076492,0.999252,0.141754,-2.515531,-1.409107,-2.514067,0.004716,0.011822,-0.001058,0.007087,0.026092,-0.003408,329.907776,331.002319,10.000000,16.851858,41.724678,34.817360
461773376.972548,-0.069641,0.998672,0.141006,-2.523659,-1.409105,-2.521943,0.032203,0.011884,0.014291,-0.027698,-0.015411,0.008951,329.811005,330.905548,10.000000,17.058590,41.862038,34.883690
461773377.005936,-0.090744,1.000397,0.141266,-2.538907,-1.409813,-2.540099,0.000117,0.013327,0.009217,-0.000521,0.107249,0.020154,329.414185,330.508728,10.000000,17.334234,41.862038,34.751022
461773377.039254,-0.103851,1.001648,0.131836,-2.536391,-1.409218,-2.539746,-0.015224,0.011500,0.000525,-0.024106,0.020066,-0.008444,329.793518,330.888062,10.000000,16.920773,42.274101,34.817368
461773377.072615,-0.083496,1.006729,0.125626,-2.533786,-1.408144,-2.537535,-0.001289,0.018020,-0.005980,-0.027910,0.032296,-0.019579,329.777893,330.872437,10.000000,17.127504,42.274086,35.149025
461773377.105945,-0.095810,1.000519,0.116302,-2.530434,-1.408185,-2.536160,-0.002912,0.013711,-0.016287,-0.000540,0.075171,-0.011254,329.788300,330.882843,10.000000,16.714043,42.205406,35.281693
461773377.139266,-0.102448,0.999298,0.118484,-2.517921,-1.409161,-2.525716,-0.013694,0.010105,-0.013265,0.036977,0.032040,-0.012983,330.377808,331.472351,10.000000,16.679586,41.690346,35.115860
461773377.172584,-0.078339,0.999603,0.138428,-2.513879,-1.409809,-2.519769,0.007927,0.012915,-0.004126,0.011139,-0.115111,-0.012933,330.392426,331.486969,10.000000,16.093847,42.068062,34.950027
461773377.205928,-0.083527,1.003571,0.145828,-2.518208,-1.410224,-2.521994,0.014999,0.012467,0.008617,0.019968,-0.128536,0.008014,330.398590,331.493134,10.000000,16.335033,42.102409,35.049530
461773377.239261,-0.094543,0.995300,0.147858,-2.524137,-1.412005,-2.525849,-0.002660,0.014275,0.019556,0.053303,0.024777,0.018947,330.414124,331.508667,10.000000,16.541765,42.789177,35.580185
461773377.272621,-0.100922,0.998001,0.142090,-2.521967,-1.412259,-2.524520,-0.003746,-0.001482,0.014877,0.020845,0.016258,0.005362,330.420837,331.515381,10.000000,16.851860,42.617485,35.547028
461773377.306964,-0.101730,0.996460,0.137680,-2.521588,-1.411997,-2.523895,-0.009178,0.013635,0.011833,0.002165,-0.014404,-0.006679,330.420074,331.514618,10.000000,16.920769,42.480125,35.414368
461773377.339277,-0.099686,1.003769,0.115036,-2.516409,-1.411535,-2.519139,-0.011053,0.013205,-0.011711,0.000911,0.032142,0.003650,330.414886,331.509430,10.000000,16.679583,41.827705,34.916878
461773377.372529,-0.115097,1.000198,0.124084,-2.511503,-1.412449,-2.515112,-0.005431,0.008955,-0.012172,0.017203,0.014943,0.013704,330.157410,331.251953,10.000000,17.058590,41.999397,35.082703
461773377.405951,-0.131134,0.996231,0.130173,-2.504845,-1.413796,-2.509084,-0.028814,0.022202,0.007891,0.060837,0.036842,0.019877,330.152374,331.246918,10.000000,17.127501,41.999397,34.883713
461773377.439265,-0.121735,0.993774,0.127625,-2.494167,-1.413558,-2.500183,-0.036688,0.008568,0.005269,0.023288,0.047883,-0.012254,330.148163,331.242706,10.000000,17.058592,42.205421,34.883713
461773377.472630,-0.069336,0.996796,0.118942,-2.487274,-1.412124,-2.492647,0.002859,0.006459,-0.002097,-0.038818,-0.070926,-0.021315,330.146729,331.241272,10.000000,16.782951,42.342781,34.552048
461773377.505884,-0.113724,1.003708,0.119034,-2.495699,-1.412823,-2.500428,0.027125,0.006684,-0.013491,0.003500,0.038389,0.030392,330.136047,331.230591,10.000000,16.989683,42.686165,34.154045
461773377.539277,-0.125748,0.998886,0.122437,-2.490715,-1.415130,-2.499107,-0.019788,0.015800,-0.004308,0.060661,0.137574,0.037160,330.102264,331.196808,10.000000,17.196413,42.617485,33.689728
461773377.572664,-0.104736,1.001740,0.138031,-2.481114,-1.415287,-2.492196,-0.029446,0.007474,0.003665,0.001031,0.024746,0.008486,330.074890,331.169434,10.000000,16.920773,42.342781,33.756058
461773377.605931,-0.092072,0.996780,0.118729,-2.482349,-1.413959,-2.493217,0.003388,0.010244,0.012048,-0.026370,0.000299,0.003633,330.078949,331.173492,10.000000,16.507307,41.930717,34.353050
461773377.639333,-0.104141,0.994736,0.111450,-2.486469,-1.414147,-2.500107,0.002978,0.009025,-0.004983,-0.006722,0.162331,0.026573,330.664673,331.759216,10.000000,16.472853,42.033730,34.916870
461773377.672810,-0.108841,1.000549,0.107193,-2.476977,-1.415414,-2.499727,-0.017147,0.015740,-0.017082,0.000853,0.132867,0.030576,331.216705,332.311249,10.000000,16.266121,41.896370,35.115868
461773377.706252,-0.085922,0.991806,0.120193,-2.474865,-1.416213,-2.499983,-0.003370,0.007331,-0.009164,0.002321,0.035889,0.026670,331.321228,332.415771,10.000000,16.369488,41.793358,35.281700
461773377.739295,-0.084244,0.994980,0.135208,-2.478947,-1.417572,-2.505340,0.012765,0.004956,0.007666,0.021033,0.050598,0.038871,331.454956,332.549500,10.000000,16.266121,41.965050,35.248535
461773377.772670,-0.096741,0.997757,0.158524,-2.488043,-1.417944,-2.516439,-0.000856,0.012758,0.034971,0.015956,0.075135,0.033711,331.494324,332.588867,10.000000,16.300575,41.793373,35.281708
461773377.805968,-0.095764,0.994400,0.143372,-2.497192,-1.416909,-2.528797,-0.000801,0.000205,0.030412,-0.031566,0.117044,0.028050,331.716949,332.811493,10.000000,16.024931,42.274117,35.215378
461773377.839294,-0.093384,0.999603,0.137238,-2.506785,-1.415224,-2.542781,-0.004122,0.006538,0.015865,-0.066587,0.154009,0.026193,331.732727,332.827271,10.000000,16.024931,42.274117,35.215378
461773377.872642,-0.077042,1.008484,0.110046,-2.515303,-1.413613,-2.558145,0.004061,0.020385,-0.003994,-0.090498,0.243699,0.025118,332.042755,333.137299,10.000000,15.714836,42.445808,35.314865
461773377.905974,-0.083542,1.005493,0.088211,-2.521788,-1.413763,-2.573882,0.013877,0.013556,-0.030483,-0.066875,0.306286,0.044204,332.395386,333.489929,10.000000,15.370287,42.033745,35.248535
461773377.939333,-0.085602,1.002716,0.086884,-2.520369,-1.414874,-2.583096,0.004996,0.016999,-0.040599,-0.015751,0.310953,0.042111,332.375854,333.470398,10.000000,15.611473,42.136757,35.480698
461773377.972673,-0.081421,1.004196,0.100723,-2.518377,-1.415919,-2.587802,0.000540,0.011573,-0.033783,-0.004097,0.114481,0.030737,332.585541,333.680084,10.000000,15.714836,41.621696,35.779190
461773378.005926,-0.065445,1.000809,0.125381,-2.527171,-1.417415,-2.597241,0.022188,0.015036,-0.004828,0.009958,-0.026714,0.031039,332.327820,333.422363,10.000000,16.266121,41.278313,35.978195
461773378.039430,-0.070389,1.000137,0.133453,-2.537026,-1.419039,-2.607178,0.015541,0.011630,0.009074,0.022291,0.035836,0.034180,332.424835,333.519379,10.000000,16.128302,40.866249,35.779198
461773378.072584,-0.070969,1.005493,0.137482,-2.546176,-1.419520,-2.618846,0.014834,0.012763,0.015980,-0.009095,0.104637,0.022282,332.077118,333.171661,10.000000,16.266121,41.072273,35.580193
461773378.105935,-0.076843,1.003433,0.127747,-2.551759,-1.419450,-2.626296,0.015426,0.010470,0.010707,-0.026599,0.121895,0.021982,332.794067,333.888611,10.000000,15.680380,41.106606,35.679703
461773378.139478,-0.064484,0.999664,0.105072,-2.559653,-1.418654,-2.640865,0.007634,0.015198,-0.006401,-0.047908,0.145219,0.005734,332.896606,333.991150,10.000000,15.680380,41.312630,35.812363
461773378.172586,-0.055481,0.999847,0.101807,-2.564244,-1.418979,-2.648622,0.021571,0.011640,-0.020170,-0.036436,0.055624,0.014043,333.495392,334.589935,10.000000,15.335829,41.587318,36.144028
461773378.205936,-0.060135,1.010620,0.103256,-2.569018,-1.420132,-2.653945,0.028358,0.016684,-0.023495,-0.012632,0.023651,0.021872,333.426849,334.521393,10.000000,15.714836,41.690315,36.707848
461773378.239232,-0.076706,0.998489,0.116989,-2.575423,-1.423782,-2.659895,0.007195,0.012771,-0.015642,0.031249,-0.067364,0.021909,333.373505,334.468048,10.000000,15.783745,41.484291,36.641510
461773378.272606,-0.078598,1.000717,0.126694,-2.577058,-1.425986,-2.657352,0.000897,0.011748,-0.000561,0.063909,-0.160762,0.025531,333.262634,334.357178,10.000000,15.818199,41.243935,36.475685
461773378.305975,-0.090454,1.001572,0.140488,-2.582352,-1.427472,-2.657464,-0.005031,0.015029,0.014210,0.043913,-0.144719,0.025218,333.272827,334.367371,10.000000,15.232464,41.278282,35.513863
461773378.339271,-0.099365,0.994370,0.133133,-2.583509,-1.426905,-2.655163,-0.020178,0.000859,0.016652,0.010135,-0.081044,0.002462,333.145050,334.239594,10.000000,15.301374,41.484306,35.447533
461773378.372594,-0.105087,1.002258,0.126541,-2.580310,-1.425905,-2.650992,-0.023673,0.010631,0.007788,-0.008773,-0.003666,-0.002122,333.215851,334.310394,10.000000,15.232466,41.621651,35.580193
461773378.406024,-0.102020,1.003723,0.112183,-2.571864,-1.424511,-2.643190,-0.033877,0.014526,-0.002913,-0.026356,0.029474,-0.016019,333.263092,334.357635,10.000000,15.577019,41.552986,36.243523
461773378.439251,-0.088043,0.993027,0.102692,-2.561735,-1.423027,-2.633469,-0.015080,0.013187,-0.015256,-0.035036,-0.014764,-0.033954,333.351868,334.446411,10.000000,15.542562,41.587334,36.343025
461773378.472797,-0.097214,1.003738,0.114777,-2.554401,-1.423336,-2.624625,-0.008702,0.007923,-0.014757,0.012592,-0.062648,0.001045,333.107300,334.201843,10.000000,15.749294,41.381310,36.210365
461773378.505898,-0.084686,1.001770,0.119705,-2.546618,-1.423537,-2.615611,-0.014456,0.018971,-0.001291,0.008705,-0.034538,-0.023672,332.567871,333.662415,10.000000,15.956022,41.518669,35.812363
461773378.539293,-0.078430,0.997314,0.128662,-2.543949,-1.423015,-2.610029,0.002790,0.007634,-0.001329,0.000158,-0.110584,-0.022980,332.571259,333.665802,10.000000,15.818203,41.449989,36.011360
461773378.572587,-0.087646,0.998611,0.132858,-2.545997,-1.423141,-2.609097,0.004104,0.008196,0.006874,0.015076,-0.061444,-0.001392,332.572571,333.667114,10.000000,16.093843,41.656013,36.210358
461773378.605951,-0.078079,0.998795,0.130188,-2.546150,-1.422406,-2.608255,-0.004906,0.013660,0.013950,-0.003760,-0.028300,-0.015288,332.567963,333.662506,10.000000,16.231665,41.587334,36.210358
461773378.639413,-0.083313,0.999588,0.122131,-2.549396,-1.421397,-2.609585,0.005980,0.007508,0.005805,-0.021150,-0.062597,-0.017517,332.559998,333.654541,10.000000,16.266119,41.759026,36.044525
461773378.672562,-0.092499,0.999191,0.116119,-2.548555,-1.420668,-2.608845,-0.008910,0.010439,-0.007907,-0.010087,0.019628,-0.008492,332.559174,333.653717,10.000000,15.990477,41.690346,35.978195
461773378.705269,-0.097778,1.000305,0.119492,-2.541836,-1.420406,-2.601760,-0.014524,0.009868,-0.008197,-0.001230,-0.045504,-0.017540,332.559753,333.654297,10.000000,15.852659,41.827705,36.110855
461773378.739288,-0.080872,0.998886,0.123901,-2.539310,-1.419705,-2.596337,-0.003565,0.013926,-0.002908,-0.019826,-0.103143,-0.025651,332.563965,333.658508,10.000000,15.783751,41.759026,35.978195
461773378.772376,-0.086212,0.998856,0.126968,-2.540016,-1.419140,-2.594143,0.000433,0.008930,-0.000637,-0.002457,-0.061484,-0.023492,332.565765,333.660309,10.000000,15.714840,42.102409,35.911865
461773378.805980,-0.088226,1.004944,0.138184,-2.536521,-1.418340,-2.589727,-0.007106,0.019915,0.012395,-0.006298,-0.024665,-0.026330,332.582275,333.676819,10.000000,15.577017,41.896370,36.177193
461773378.839334,-0.093414,0.991150,0.136597,-2.536147,-1.416507,-2.588484,-0.001725,0.005776,0.011440,-0.036282,-0.011058,-0.031575,332.940765,334.035309,10.000000,15.508108,41.621666,35.978195
461773378.872757,-0.068634,1.012817,0.115311,-2.535918,-1.414839,-2.589782,0.005865,0.005835,0.004384,-0.042663,0.079908,-0.009350,332.935608,334.030151,10.000000,15.714840,41.484322,35.712875
461773378.905977,-0.047546,1.010300,0.100891,-2.538149,-1.413717,-2.594872,0.020139,0.025129,-0.013495,-0.061454,0.089702,-0.029105,332.916962,334.011505,10.000000,15.611473,41.930717,35.281723
461773378.939318,-0.059845,0.992905,0.099106,-2.546149,-1.415341,-2.604116,0.043002,0.016102,-0.036967,-0.018697,-0.007263,0.003932,332.908875,334.003418,10.000000,15.335829,41.862022,35.746048
461773378.972593,-0.102219,1.001312,0.131989,-2.547437,-1.417264,-2.603461,0.011957,0.006361,-0.020931,0.092584,-0.076283,0.042072,332.915009,334.009552,10.000000,15.094643,41.690331,35.845543
461773379.005941,-0.102890,1.001266,0.149994,-2.548632,-1.420605,-2.597968,-0.019275,0.012524,0.025910,0.025434,-0.196392,0.015912,332.909332,334.003876,10.000000,15.611473,41.587318,35.878708
461773379.038940,-0.071289,0.999725,0.149857,-2.551778,-1.420548,-2.596564,0.004519,0.013128,0.031948,-0.003667,-0.067588,-0.018534,332.880798,333.975342,10.000000,16.197210,42.033699,35.381210
461773379.072628,-0.075897,0.997421,0.123840,-2.554009,-1.420301,-2.599507,0.012922,0.010998,0.008458,0.002428,0.041809,0.018246,332.264008,333.358551,10.000000,15.852657,42.308418,35.447548
461773379.105826,-0.082031,0.997131,0.118515,-2.557620,-1.420736,-2.603501,0.000393,0.008369,-0.006208,0.003792,-0.012212,0.015136,331.864624,332.959167,10.000000,15.990477,42.308418,35.381210
461773379.139539,-0.081116,1.001022,0.123322,-2.561321,-1.421796,-2.606378,0.004621,0.007937,-0.006338,0.017763,-0.047977,0.027887,331.534698,332.629242,10.000000,16.300575,42.205391,35.414375
461773379.172610,-0.093231,1.003098,0.132278,-2.565395,-1.422875,-2.608251,-0.010032,0.017970,0.009394,0.030236,-0.050493,0.026786,331.214905,332.309448,10.000000,16.610670,42.377083,35.580208
461773379.205906,-0.089539,0.999542,0.131378,-2.565173,-1.423008,-2.607342,-0.012289,0.012518,0.009507,0.006400,-0.013651,0.011592,331.424561,332.519104,10.000000,16.403938,42.514442,35.646538
461773379.239254,-0.084290,1.004242,0.124512,-2.565178,-1.422617,-2.606895,-0.007013,0.015445,0.001889,-0.004835,-0.013613,0.009061,332.028412,333.122955,10.000000,15.990477,42.171074,35.779198
461773379.272658,-0.092163,0.998657,0.106659,-2.563637,-1.422580,-2.605289,-0.013608,0.011345,-0.009355,-0.001154,0.009674,0.006414,332.036255,333.130798,10.000000,15.542562,41.999382,35.348038
461773379.305855,-0.101395,1.003662,0.107269,-2.555188,-1.423537,-2.597722,-0.009336,0.011418,-0.017128,0.023836,0.026649,0.010123,332.036316,333.130859,10.000000,15.783749,41.965034,35.314865
461773379.339203,-0.096420,1.001938,0.120285,-2.545307,-1.423917,-2.587895,-0.008206,0.009593,0.000349,0.005203,-0.029823,-0.008983,332.021820,333.116364,10.000000,16.162756,41.793343,35.082703
461773379.372645,-0.063782,0.993271,0.112427,-2.540156,-1.423659,-2.580975,0.009727,0.010332,0.000732,0.000265,-0.064214,-0.018441,332.015259,333.109802,10.000000,16.162752,41.724678,35.547035
461773379.405936,-0.074051,0.999512,0.118332,-2.543982,-1.424248,-2.583002,0.013133,0.005500,-0.005481,0.011490,-0.029770,0.005709,332.016876,333.111420,10.000000,15.680382,41.999367,35.082710
461773379.439250,-0.086395,1.006866,0.121140,-2.544477,-1.425269,-2.583755,0.002526,0.011623,0.003522,0.022616,0.022995,0.013811,332.017334,333.111877,10.000000,15.714836,42.308403,35.248543
461773379.472633,-0.093628,1.001373,0.122330,-2.541867,-1.425788,-2.581391,-0.006317,0.013364,-0.001471,0.010228,-0.007836,-0.005469,331.999664,333.094208,10.000000,16.059389,42.583107,34.717880
461773379.505981,-0.092194,1.001648,0.138351,-2.538358,-1.426189,-2.577104,-0.011403,0.016480,0.012143,0.037757,-0.025053,0.010770,331.977966,333.072510,10.000000,16.266119,42.514427,34.983208
461773379.539281,-0.091415,0.998138,0.134384,-2.535143,-1.425547,-2.574066,-0.015543,0.013399,0.017912,0.003883,0.022825,-0.014371,331.961884,333.056427,10.000000,16.576216,42.617439,34.883713
461773379.572688,-0.083298,0.992172,0.108521,-2.532538,-1.423717,-2.572305,-0.005790,0.009469,0.008739,-0.037341,0.029066,-0.029392,331.937988,333.032532,10.000000,16.403942,42.171043,34.983200
461773379.605946,-0.121002,1.013901,0.113220,-2.530912,-1.423173,-2.572913,0.001046,0.003049,-0.011982,-0.006205,0.110167,0.015179,331.920441,333.014984,10.000000,16.197210,42.308403,34.784203
461773379.639659,-0.115158,1.005142,0.112656,-2.517879,-1.423930,-2.564696,-0.035533,0.024666,-0.005565,0.028703,0.157817,0.019876,331.916595,333.011139,10.000000,15.956022,42.274055,34.950035
461773379.672601,-0.066681,0.990311,0.115356,-2.504950,-1.423111,-2.555391,0.017228,0.005042,-0.005071,-0.025922,-0.005391,-0.022843,331.720459,332.815002,10.000000,16.403938,42.377083,35.646530
461773379.705942,-0.070831,1.001297,0.139481,-2.512270,-1.423794,-2.562837,0.016237,0.004697,0.011683,0.024035,0.036395,0.029591,331.839844,332.934387,10.000000,16.403938,42.445763,35.911858
461773379.739226,-0.080139,0.998856,0.132706,-2.521300,-1.424108,-2.574910,0.009811,0.012998,0.017373,-0.011081,0.118785,0.030947,331.812805,332.907349,10.000000,16.335028,42.377083,35.646530
461773379.772712,-0.076981,0.995087,0.128601,-2.529857,-1.424008,-2.587499,0.005612,0.004452,0.009870,-0.023549,0.127478,0.039308,331.384979,332.479523,10.000000,16.266119,42.171059,34.916878
461773379.805946,-0.071625,1.000641,0.110321,-2.539128,-1.424176,-2.601526,0.004557,0.009616,-0.001447,-0.023561,0.163028,0.038989,331.629639,332.724182,10.000000,16.438396,41.381294,35.281693
461773379.839223,-0.063126,1.002487,0.104202,-2.545885,-1.424823,-2.613679,0.015101,0.009826,-0.014947,-0.034741,0.145898,0.039078,331.519012,332.613556,10.000000,16.610674,41.209602,35.381187
461773379.872708,-0.069565,1.001114,0.108734,-2.554760,-1.426279,-2.626051,0.013644,0.019000,-0.017321,-0.009626,0.083226,0.044781,332.325684,333.420227,10.000000,16.128302,41.484322,35.911850
461773379.905955,-0.055679,0.997116,0.115372,-2.563149,-1.427793,-2.637149,0.008047,0.010223,-0.007759,-0.007121,0.095547,0.055661,332.674591,333.769135,10.000000,15.508108,41.827675,35.911850
461773379.939361,-0.068604,0.999405,0.116547,-2.576424,-1.429206,-2.653040,0.018921,0.010724,-0.002764,-0.017004,0.043996,0.046349,332.687805,333.782349,10.000000,15.129097,41.655998,36.011345
461773379.972783,-0.082565,1.013550,0.109665,-2.587109,-1.430069,-2.665569,0.010022,0.012297,-0.002671,-0.014528,0.070973,0.043679,332.713318,333.807861,10.000000,15.473650,41.106575,36.077682
461773380.005897,-0.081375,0.996826,0.112686,-2.589878,-1.430709,-2.671542,-0.009409,0.008911,-0.008714,-0.007065,0.054880,0.024372,333.166931,334.261475,10.000000,15.783745,40.934898,36.243515
461773380.039137,-0.100296,1.004745,0.124634,-2.590615,-1.430867,-2.673104,-0.008358,0.006600,-0.006147,-0.004541,0.047526,0.028124,333.174957,334.269501,10.000000,15.542559,41.793343,36.807335
461773380.072629,-0.081772,0.991302,0.110382,-2.580703,-1.429004,-2.666082,-0.012703,0.012187,0.006052,-0.065845,0.045021,-0.032113,333.186829,334.281372,10.000000,15.335829,41.930687,36.873665
461773380.105947,-0.073853,0.998138,0.095825,-2.578196,-1.428115,-2.664064,-0.006348,0.004287,-0.017682,-0.057052,0.021672,-0.030594,333.198914,334.293457,10.000000,15.749294,42.136726,37.006332
461773380.139379,-0.078384,1.005661,0.092438,-2.573622,-1.428081,-2.660231,0.002657,0.008305,-0.024075,-0.017075,0.022828,-0.010779,333.201233,334.295776,10.000000,15.990480,41.896370,36.575172
461773380.172551,-0.079742,1.001480,0.093246,-2.557915,-1.429679,-2.645357,-0.007374,0.016105,-0.022164,0.029046,0.026244,-0.026311,333.200165,334.294708,10.000000,15.956022,41.862022,36.674667
461773380.205932,-0.069977,1.003708,0.140717,-2.547309,-1.431057,-2.632592,0.003464,0.004926,-0.001543,0.041923,-0.137007,-0.020925,333.203400,334.297943,10.000000,15.852654,42.102379,36.575165
461773380.239301,-0.068954,0.996643,0.154022,-2.550335,-1.430871,-2.633026,0.007764,0.013481,0.024924,0.015791,-0.161427,-0.019660,333.211639,334.306183,10.000000,15.749289,41.930687,36.807327
461773380.272543,-0.082047,0.998657,0.141891,-2.552882,-1.429358,-2.632733,0.002961,0.009833,0.030865,-0.020989,0.084139,-0.028486,333.213531,334.308075,10.000000,15.783745,41.827675,36.508835
461773380.305914,-0.082764,1.006973,0.115402,-2.550019,-1.427165,-2.632759,-0.012294,0.015775,0.008460,-0.058376,0.054788,-0.040679,332.915894,334.010437,10.000000,15.956026,41.724678,36.210335
461773380.338792,-0.068268,1.002533,0.104218,-2.547757,-1.424468,-2.631090,0.004284,0.014807,-0.011759,-0.065779,0.015512,-0.053756,333.111328,334.205872,10.000000,15.645931,41.896370,36.110832
461773380.372564,-0.073761,1.006729,0.105591,-2.544395,-1.424901,-2.628642,0.013025,0.011662,-0.018333,0.004122,0.032533,-0.025323,333.150024,334.244568,10.000000,15.645931,42.171074,36.243500
461773380.405923,-0.078857,1.009995,0.115036,-2.535766,-1.425203,-2.620759,0.002963,0.023809,-0.011502,-0.009562,-0.006782,-0.044554,334.107239,335.201782,10.000000,15.163557,42.171074,36.840485
461773380.439246,-0.049225,1.003693,0.125443,-2.529878,-1.423985,-2.611276,0.015648,0.016907,0.002435,-0.021795,-0.162804,-0.084571,333.303284,334.397827,10.000000,16.024935,42.274086,37.006317
461773380.472539,-0.054245,1.005508,0.136810,-2.537316,-1.423066,-2.612346,0.034406,0.014585,0.004315,-0.004198,-0.187294,-0.059780,333.223572,334.318115,10.000000,16.024935,42.205406,36.939987
461773380.506127,-0.067841,0.999893,0.119965,-2.545793,-1.422854,-2.617304,0.027009,0.023604,0.012073,-0.003263,-0.026469,-0.045507,333.399628,334.494171,10.000000,15.714836,41.965034,36.774155
461773380.539263,-0.098969,1.009277,0.107224,-2.543230,-1.422557,-2.614109,0.007879,0.011578,-0.007519,0.009251,-0.033848,-0.038012,333.954773,335.049316,10.000000,15.094643,41.759026,36.508835
461773380.572314,-0.098480,1.000580,0.103577,-2.531458,-1.422806,-2.599631,-0.014483,0.020208,-0.013623,0.020639,-0.108789,-0.043281,332.833313,333.927856,10.000000,15.645926,41.759026,35.712845
461773380.606006,-0.090942,0.992050,0.117828,-2.520270,-1.422973,-2.582447,-0.010562,0.003765,-0.016121,0.034675,-0.236464,-0.039465,332.706329,333.800873,10.000000,15.714836,41.827705,35.779167
461773380.639262,-0.101715,1.001099,0.140930,-2.513750,-1.423730,-2.567286,-0.008041,0.008369,0.003754,0.063487,-0.270880,-0.025483,331.465454,332.559998,10.000000,16.300579,42.274086,35.082687
461773380.672644,-0.105835,0.997330,0.149765,-2.504746,-1.423859,-2.545450,-0.018771,0.008106,0.032055,0.075878,-0.246550,-0.037872,331.679016,332.773560,10.000000,16.162756,42.480110,35.348015
461773380.705953,-0.103653,0.990860,0.152924,-2.498666,-1.422185,-2.531707,-0.015279,-0.000071,0.037976,0.032095,-0.229307,-0.062784,331.485962,332.580505,10.000000,16.300575,42.342766,35.215355
461773380.739303,-0.091461,1.003311,0.134705,-2.495675,-1.419735,-2.519945,-0.007745,-0.000575,0.022758,0.012296,-0.315187,-0.074283,331.436005,332.530548,10.000000,16.472851,42.102394,35.381195
461773380.772664,-0.085098,1.022797,0.133560,-2.495782,-1.418152,-2.507596,-0.002177,0.029084,0.011549,0.017454,-0.401166,-0.083148,331.372223,332.466766,10.000000,16.782949,42.480110,35.348038
461773380.806195,-0.066269,0.995178,0.116547,-2.499069,-1.417342,-2.498165,0.027383,0.010744,-0.005428,0.006217,-0.391279,-0.079664,331.343018,332.437561,10.000000,17.265322,42.754829,35.215370
461773380.839294,-0.066772,1.006454,0.118286,-2.501731,-1.418232,-2.486985,0.022549,0.008823,-0.002983,0.072529,-0.430865,-0.054404,329.283356,330.377899,10.000000,17.713240,42.445793,34.651543
461773380.872952,-0.052734,1.003647,0.122162,-2.502658,-1.420004,-2.473736,0.029464,0.021357,0.000827,0.072632,-0.436854,-0.027498,327.899872,328.994415,10.000000,18.057793,42.377113,33.656570
461773380.905898,-0.082428,0.983612,0.134201,-2.509556,-1.422180,-2.466143,0.028014,-0.006372,0.005778,0.101489,-0.444087,0.020379,327.701874,328.796417,10.000000,17.988882,42.239754,33.391243
461773380.939312,-0.136154,0.990631,0.142807,-2.514952,-1.425034,-2.458978,-0.031400,0.005356,0.023249,0.121229,-0.332402,0.037715,327.200226,328.294769,10.000000,18.161156,42.686150,33.159073
461773380.972829,-0.149826,0.991623,0.136627,-2.518527,-1.427143,-2.453714,-0.063069,0.001481,0.022687,0.031114,-0.240127,0.005606,327.147675,328.242218,10.000000,18.815807,42.789162,33.059578
461773381.005863,-0.127838,0.991348,0.115097,-2.518856,-1.425934,-2.446496,-0.056428,0.002418,0.007330,-0.022574,-0.243680,-0.015516,327.103790,328.198334,10.000000,18.712440,42.823494,32.827408
461773381.039255,-0.108337,0.995575,0.092911,-2.537905,-1.423965,-2.456805,-0.028686,0.004581,-0.023307,-0.051520,-0.078889,0.022882,325.505615,326.600159,10.000000,19.194817,42.960854,32.694748
461773381.072594,-0.124466,1.002594,0.085190,-2.547412,-1.423913,-2.467412,-0.031850,0.008891,-0.035731,-0.009454,0.089152,0.041050,325.087952,326.182495,10.000000,19.125906,42.892174,32.429413
461773381.105239,-0.128479,1.002304,0.092484,-2.540833,-1.424484,-2.462793,-0.042055,0.013279,-0.035074,0.009134,0.120896,0.026231,324.970825,326.065369,10.000000,19.367092,42.308434,32.595245
461773381.139267,-0.068756,1.010162,0.127106,-2.533499,-1.423188,-2.456770,-0.008506,0.018824,-0.005123,-0.061657,-0.092673,-0.038067,325.118103,326.212646,10.000000,19.056993,42.068062,32.363083
461773381.172615,-0.056717,1.000198,0.129242,-2.541422,-1.420878,-2.461725,0.017246,0.015153,0.003179,-0.051757,-0.050954,-0.031084,325.495972,326.590515,10.000000,19.056993,41.587334,32.495743
461773381.205925,-0.051254,1.015396,0.131561,-2.546824,-1.420249,-2.468442,0.031713,0.019917,0.006269,-0.032025,0.098899,0.009059,324.951019,326.045563,10.000000,19.367088,41.896370,32.462578
461773381.239415,-0.058792,1.006897,0.115341,-2.548258,-1.419644,-2.471821,0.029993,0.029422,0.006278,-0.057033,0.121080,0.004987,325.027161,326.121704,10.000000,19.470455,41.724678,32.694748
461773381.272616,-0.089890,0.988892,0.101410,-2.557662,-1.417862,-2.486330,0.018831,0.004470,-0.024390,-0.027049,0.116104,0.017470,325.014130,326.108673,10.000000,19.470455,41.655983,32.694748
461773381.305868,-0.120209,0.986084,0.119354,-2.556860,-1.419471,-2.489008,-0.021283,0.000625,-0.015443,0.032972,0.072970,0.034221,325.102142,326.196686,10.000000,18.712440,41.793343,33.225410
461773381.339217,-0.126892,0.988998,0.154175,-2.549144,-1.419704,-2.482490,-0.048382,0.005747,0.011944,0.015561,-0.013113,-0.012642,325.155334,326.249878,10.000000,18.505709,41.862007,33.092743
461773381.372616,-0.091873,1.004181,0.154572,-2.548890,-1.417709,-2.482150,-0.014077,0.004569,0.020660,-0.045723,0.058338,-0.013827,325.272217,326.366760,10.000000,18.471254,42.445763,33.324905
461773381.405929,-0.087921,1.003433,0.153198,-2.551960,-1.416079,-2.488687,-0.009648,0.014829,0.030992,-0.051991,0.134333,0.012133,326.349426,327.443970,10.000000,18.471254,42.377083,33.192245
461773381.439241,-0.072037,0.999435,0.128693,-2.555240,-1.414245,-2.498064,0.005216,0.006614,0.006712,-0.062173,0.211657,0.005185,326.446655,327.541199,10.000000,18.609076,42.102379,33.391243
461773381.472606,-0.073593,1.007858,0.131500,-2.556088,-1.412979,-2.506113,0.019591,0.012763,-0.004169,-0.059633,0.200635,0.011416,326.999847,328.094391,10.000000,18.161156,41.518623,33.424408
461773381.505950,-0.078644,1.001602,0.144485,-2.561767,-1.413120,-2.516796,0.012727,0.018951,0.009769,-0.005796,0.141603,0.033159,326.537323,327.631866,10.000000,18.609076,41.690315,33.391243
461773381.539261,-0.069199,1.003418,0.136612,-2.564436,-1.412851,-2.524206,0.000726,0.015850,0.008722,-0.023334,0.137859,0.007442,326.264374,327.358917,10.000000,18.746895,42.445747,33.391243
461773381.572653,-0.059906,0.997269,0.125931,-2.572325,-1.412345,-2.534904,0.027693,0.014984,-0.005692,-0.050581,0.044662,-0.001590,326.415070,327.509613,10.000000,18.746895,42.651787,33.656570
461773381.606621,-0.076309,1.008209,0.126205,-2.584972,-1.413605,-2.549267,0.022800,0.009598,-0.006983,0.005506,0.101020,0.027570,326.511505,327.606049,10.000000,18.746895,42.926491,33.789238
461773381.639638,-0.082062,0.990067,0.127197,-2.583275,-1.415821,-2.552819,-0.000763,0.011283,-0.006786,-0.001864,0.040861,0.017137,327.271118,328.365662,10.000000,18.195610,42.171059,33.921906
461773381.672622,-0.094254,0.996521,0.144272,-2.584252,-1.416581,-2.554038,-0.005408,0.001186,0.004224,0.030647,0.008823,0.020144,327.486328,328.580872,10.000000,18.092245,41.862022,33.888741
461773381.705901,-0.087082,1.005051,0.141678,-2.583017,-1.415732,-2.553825,-0.010815,0.020757,0.019527,-0.013122,0.038405,0.007310,328.041565,329.136108,10.000000,17.575417,41.484306,33.921898
461773381.739287,-0.091202,0.993652,0.131104,-2.586931,-1.414260,-2.559760,-0.005054,0.009038,0.005170,-0.040690,0.098687,0.011377,328.138458,329.233002,10.000000,17.644329,41.827675,33.921906
461773381.772650,-0.106171,0.991989,0.120529,-2.582096,-1.413821,-2.560797,-0.018909,0.003872,-0.008044,-0.012210,0.210333,0.028778,328.340332,329.434875,10.000000,17.609875,42.274055,34.286728
461773381.805949,-0.092484,1.006699,0.120163,-2.569867,-1.413615,-2.554898,-0.018390,0.017104,-0.013446,-0.027104,0.163696,0.015700,328.595306,329.689850,10.000000,17.472052,42.136711,34.353058
461773381.839314,-0.092911,0.991150,0.118393,-2.567331,-1.412928,-2.556875,-0.005709,0.012756,-0.012321,-0.053243,0.134322,0.008470,328.908813,330.003357,10.000000,17.472052,41.999367,34.618378
461773381.872856,-0.095383,1.002426,0.129852,-2.563001,-1.412854,-2.557791,-0.013750,0.005901,-0.013018,-0.004639,0.172234,0.024321,328.720215,329.814758,10.000000,17.540962,41.655983,34.353043
461773381.905954,-0.087784,0.996414,0.141678,-2.558624,-1.412744,-2.558361,-0.006768,0.012708,0.002665,-0.023282,0.125605,0.010000,329.425964,330.520508,10.000000,17.058592,41.381279,34.618370
461773381.939297,-0.096359,1.001495,0.146927,-2.561466,-1.411638,-2.564963,-0.005063,0.011907,0.012996,-0.029514,0.133036,0.017198,329.209442,330.303986,10.000000,16.817406,41.415627,34.784203
461773381.972827,-0.093597,0.994995,0.137909,-2.559805,-1.409903,-2.570256,-0.012156,0.016211,0.011740,-0.056069,0.256993,-0.003763,329.234955,330.329498,10.000000,16.645128,41.655998,34.950035
461773382.005935,-0.075821,0.995102,0.130005,-2.559889,-1.406608,-2.582317,0.009181,0.007223,-0.005114,-0.082200,0.247353,0.007114,329.293976,330.388519,10.000000,16.714041,41.930702,35.348038
461773382.039262,-0.085953,1.003677,0.125809,-2.562607,-1.405738,-2.594528,0.003954,0.017269,-0.011722,-0.063608,0.313604,0.018800,330.547363,331.641907,10.000000,16.438398,41.930687,35.547043
461773382.072519,-0.108582,0.999634,0.128342,-2.555847,-1.405343,-2.597577,-0.009049,0.017135,-0.012167,-0.031118,0.270435,0.006057,331.375977,332.470520,10.000000,16.162758,41.793343,35.812370
461773382.105935,-0.102203,0.998047,0.159744,-2.544730,-1.404261,-2.593647,-0.019730,0.008174,0.006876,-0.022273,0.195432,-0.012654,331.778290,332.872833,10.000000,15.887114,41.930687,35.746033
461773382.139267,-0.077560,0.988022,0.164658,-2.547748,-1.401837,-2.602871,0.016532,0.002261,0.025291,-0.074571,0.194585,0.013796,331.891235,332.985779,10.000000,15.783749,42.239738,35.779198
461773382.172528,-0.101547,0.977905,0.150070,-2.558870,-1.399705,-2.623548,0.002781,-0.010821,0.014365,-0.068681,0.403444,0.060565,332.187836,333.282379,10.000000,15.611473,41.793343,35.679695
461773382.205932,-0.132324,0.998810,0.124344,-2.555108,-1.399034,-2.637543,-0.025097,0.002584,-0.004555,-0.057859,0.598623,0.078219,332.959229,334.053772,10.000000,15.266920,41.518639,36.144028
461773382.239261,-0.143646,0.997574,0.119049,-2.552029,-1.398776,-2.644372,-0.037152,0.013569,-0.017933,-0.066595,0.599883,0.076917,334.126648,335.221191,10.000000,14.577816,40.763191,36.409355
461773382.272612,-0.137985,1.000107,0.126923,-2.547123,-1.398190,-2.665790,-0.046309,0.016767,-0.019560,-0.045191,0.476918,0.050241,335.056519,336.151062,10.000000,14.095442,40.831871,36.674690
461773382.305976,-0.120224,0.998474,0.149216,-2.537961,-1.397439,-2.669683,-0.034550,0.014562,-0.008219,-0.033822,0.357598,0.008812,335.594757,336.689301,10.000000,13.888710,41.037910,37.006355
461773382.339383,-0.106705,1.006760,0.161926,-2.534304,-1.395908,-2.677053,-0.014875,0.019160,0.012493,-0.066195,0.333194,0.007587,336.857788,337.952332,10.000000,13.268517,41.106575,37.537010
461773382.372614,-0.066711,1.000259,0.172150,-2.530863,-1.393426,-2.685178,0.009585,0.017734,0.026719,-0.109996,0.367638,-0.013831,337.905548,339.000092,10.000000,12.786144,41.106575,38.001335
461773382.405924,-0.027466,1.003708,0.152740,-2.533571,-1.389820,-2.700526,0.063970,0.015950,0.014102,-0.127421,0.406841,0.005102,338.651306,339.745850,10.000000,12.165951,41.175255,38.001335
461773382.439206,-0.053818,0.995285,0.126205,-2.533432,-1.387287,-2.715690,0.079222,0.021658,-0.005185,-0.096381,0.518588,0.043267,339.638123,340.732666,10.000000,11.786943,41.072227,38.631500
461773382.472615,-0.083542,0.999268,0.125519,-2.531884,-1.386836,-2.731794,0.050930,0.012158,-0.023759,-0.032661,0.522191,0.081539,340.532715,341.627258,10.000000,11.407936,40.557152,39.128990
461773382.506164,-0.072495,1.007233,0.134140,-2.529466,-1.387884,-2.743536,0.033305,0.013294,-0.023059,-0.009846,0.341588,0.063993,340.495056,341.589600,10.000000,11.649122,40.248116,39.294815
461773382.539290,-0.082367,1.004028,0.140778,-2.531686,-1.389071,-2.753200,0.025882,0.032794,-0.006693,0.015443,0.196668,0.065630,341.328064,342.422607,10.000000,10.925564,40.900520,39.261650
461773382.572669,-0.092682,0.990158,0.122375,-2.533419,-1.391082,-2.763331,0.019764,0.020133,-0.005920,0.003945,0.303450,0.058382,342.448547,343.543091,10.000000,10.167547,41.106529,39.526978
461773382.606060,-0.123398,0.998734,0.119629,-2.528513,-1.393105,-2.769645,0.003087,-0.001009,-0.028310,0.036291,0.340127,0.059485,343.142517,344.237061,10.000000,9.719627,41.140862,39.692810
461773382.639365,-0.125000,0.997406,0.132004,-2.516378,-1.396194,-2.766382,-0.027494,0.019812,-0.017794,0.080210,0.213473,0.050099,343.950226,345.044769,10.000000,9.271706,40.557121,39.792313
461773382.672636,-0.112305,0.981812,0.132202,-2.504634,-1.398214,-2.762443,-0.017998,0.001748,-0.006232,0.022910,0.137459,0.016255,344.276947,345.371490,10.000000,9.306164,40.591438,39.759140
461773382.706052,-0.093735,1.006332,0.146133,-2.501269,-1.400276,-2.762962,0.008474,0.013252,0.005828,0.072859,0.132413,0.032550,344.355835,345.450378,10.000000,9.306164,40.385429,39.759140
461773382.739115,-0.103348,0.989807,0.131500,-2.500531,-1.402456,-2.769183,0.005718,0.020865,0.009043,0.025163,0.286129,0.050179,344.404968,345.499512,10.000000,9.478441,40.488411,40.190308
461773382.772649,-0.121582,0.989578,0.124374,-2.495228,-1.403782,-2.774902,-0.009465,0.000395,-0.005675,0.016297,0.350009,0.054354,345.054474,346.149017,10.000000,9.133886,40.625771,40.654633
461773382.805931,-0.132614,1.000229,0.129929,-2.477413,-1.404705,-2.767387,-0.030383,0.005949,-0.003825,0.028868,0.270035,0.027176,345.437439,346.531982,10.000000,8.823788,41.003487,40.687798
461773382.839263,-0.101990,0.996613,0.135773,-2.462920,-1.403505,-2.758838,-0.017418,0.015181,0.007852,-0.024501,0.121634,0.000174,345.735779,346.830322,10.000000,8.858244,40.557091,40.787300
461773382.872637,-0.094925,0.991287,0.135178,-2.464212,-1.402570,-2.764214,0.008062,0.008318,0.006282,-0.028334,0.169551,0.006989,345.724213,346.818756,10.000000,8.720427,40.831779,40.190323
461773382.905811,-0.125809,0.995132,0.121582,-2.461167,-1.402627,-2.769323,-0.004730,0.007347,-0.002082,-0.004868,0.282412,0.018245,339.155640,340.250183,25.000000,12.758568,31.994812,33.876602
461773382.939184,-0.105591,1.000092,0.116608,-2.447896,-1.402231,-2.764244,-0.020417,0.015455,-0.010175,-0.023502,0.207460,-0.014097,338.786926,339.881470,25.000000,12.241735,32.235168,33.843437
461773382.972149,-0.080246,0.993256,0.118546,-2.440721,-1.401769,-2.761176,0.017344,0.010665,-0.013137,-0.039430,0.078633,-0.021476,339.809021,340.903564,25.000000,11.862726,31.926163,34.539902
461773383.005828,-0.096375,1.003433,0.127792,-2.446418,-1.403307,-2.769422,0.022887,0.005021,-0.008301,0.015553,0.109359,0.032328,339.951385,341.045929,25.000000,11.828272,31.685806,34.440407
461773383.039193,-0.094284,1.014130,0.120697,-2.446104,-1.405431,-2.777239,0.003854,0.030564,-0.002448,-0.015803,0.151090,0.007277,339.855469,340.950012,25.000000,11.897182,31.754486,34.374077
461773383.072634,-0.071503,0.997314,0.113480,-2.448816,-1.405987,-2.782956,0.033281,0.010865,-0.012764,-0.016893,0.068801,-0.005324,340.007782,341.102325,25.000000,11.655996,31.720123,34.075584
461773383.105859,-0.088623,0.995590,0.115448,-2.453649,-1.408902,-2.790473,0.025320,0.005172,-0.010650,0.043069,0.100719,0.046068,340.477875,341.572418,25.000000,11.345896,31.754456,34.175079
461773383.139151,-0.119949,0.995514,0.126846,-2.452122,-1.410401,-2.790750,-0.002943,0.014011,0.000002,0.057989,0.115359,0.042377,340.769958,341.864502,25.000000,11.139164,31.823120,34.241409
461773383.172553,-0.097031,0.982513,0.135956,-2.443816,-1.411301,-2.786019,-0.003134,-0.004123,0.006566,0.010756,0.007420,0.013806,340.950836,342.045380,25.000000,11.104710,31.720123,34.340912
461773383.205035,-0.107712,0.992981,0.139191,-2.452006,-1.411727,-2.794067,-0.000694,-0.000116,0.017426,0.012060,0.027228,0.046561,341.074249,342.168793,25.000000,11.104710,31.788803,34.009270
461773383.239144,-0.106171,1.008621,0.129639,-2.453378,-1.412002,-2.798659,-0.013516,0.021752,0.016628,0.005541,0.121663,0.029707,340.040894,341.135437,25.000000,11.759359,31.411118,33.909775
461773383.272536,-0.090225,0.993301,0.126862,-2.455379,-1.411529,-2.803772,-0.001304,0.006003,0.002028,-0.021815,0.061554,0.011796,340.047546,341.142090,25.000000,11.655994,31.582794,33.942932
461773383.305871,-0.075546,0.998611,0.123550,-2.462675,-1.411632,-2.811947,0.016259,0.009451,0.001454,-0.026660,0.006373,0.015972,340.316101,341.410645,25.000000,11.793814,31.308105,34.539909
461773383.339317,-0.087677,1.010361,0.116837,-2.475241,-1.412445,-2.824465,0.022872,0.018005,-0.005534,-0.019126,0.002724,0.028274,340.586609,341.681152,25.000000,11.449263,31.376770,34.340919
461773383.372599,-0.107010,1.002899,0.107498,-2.479867,-1.413541,-2.829971,0.001201,0.021998,-0.010333,0.008203,0.035682,0.018398,340.591064,341.685608,25.000000,11.242531,31.308105,34.075592
461773383.405931,-0.081528,1.002869,0.113068,-2.471625,-1.414697,-2.821300,0.002880,0.014768,-0.012440,0.016000,-0.108346,-0.011894,340.234131,341.328674,25.000000,11.035801,31.857468,33.743942
461773383.439250,-0.081406,1.000351,0.128494,-2.481134,-1.415546,-2.823695,0.025784,0.010745,-0.004755,0.006412,-0.251809,0.002889,340.263885,341.358429,25.000000,11.139164,32.097809,34.108765
461773383.472611,-0.101303,0.997116,0.135651,-2.487960,-1.417273,-2.824381,0.000138,0.015164,0.013761,0.068519,-0.125602,0.017970,340.254944,341.349487,25.000000,11.828272,32.441162,34.506744
461773383.505940,-0.101685,0.990692,0.136551,-2.489369,-1.417683,-2.821922,-0.008733,0.008815,0.014441,0.018646,-0.151223,0.004422,339.394623,340.489166,25.000000,12.138369,32.612839,34.340919
461773383.539285,-0.115143,1.004211,0.135590,-2.497026,-1.416768,-2.823615,-0.011318,0.005400,0.017194,-0.004995,-0.176887,0.004495,339.139465,340.234009,25.000000,12.138369,32.544174,34.141922
461773383.572648,-0.106155,1.000076,0.119202,-2.499238,-1.415670,-2.822354,-0.026198,0.020385,0.006996,-0.006563,-0.050507,-0.001662,338.973846,340.068390,25.000000,12.069454,32.406830,33.743935
461773383.605922,-0.095261,0.991104,0.108231,-2.494478,-1.414344,-2.815556,-0.012217,0.012290,-0.005111,-0.030247,-0.100895,-0.034286,338.769073,339.863617,25.000000,12.482922,31.788788,34.208244
461773383.639256,-0.089661,1.000488,0.121201,-2.498900,-1.414550,-2.812330,0.001713,0.011449,-0.006767,0.000001,-0.167043,0.012966,338.856171,339.950714,25.000000,12.310646,31.823135,34.108757
461773383.672876,-0.100906,1.005478,0.120621,-2.502402,-1.415046,-2.811829,-0.005546,0.021061,-0.001649,0.012262,-0.102151,-0.004667,338.944183,340.038727,25.000000,12.345100,31.582794,34.274582
461773383.705949,-0.097351,0.992767,0.117767,-2.501666,-1.414912,-2.807196,-0.004643,0.004893,-0.006768,-0.002623,-0.136451,-0.005661,338.876373,339.970917,25.000000,12.276190,31.720123,34.208244
461773383.739300,-0.095154,0.999512,0.121536,-2.505674,-1.415257,-2.806670,-0.000997,0.010943,-0.003263,0.006164,-0.136397,0.011486,338.136200,339.230743,25.000000,12.896385,31.720123,34.141922
461773383.772582,-0.099945,0.997742,0.118881,-2.507708,-1.415924,-2.805206,-0.006997,0.009497,-0.003956,0.018538,-0.093494,0.012372,337.629852,338.724396,25.000000,13.137571,31.754456,33.976097
461773383.806259,-0.105637,0.997391,0.122314,-2.508809,-1.416620,-2.803333,-0.012133,0.008016,-0.004067,0.012342,-0.099561,0.019703,337.225861,338.320404,25.000000,13.378759,32.063461,33.677605
461773383.839300,-0.106949,0.996429,0.122772,-2.508794,-1.416579,-2.799982,-0.017402,0.008801,0.000144,-0.000125,-0.108122,0.014808,337.206329,338.300873,25.000000,13.516581,31.720123,33.876595
461773383.872626,-0.101517,0.998001,0.123291,-2.509986,-1.416493,-2.798289,-0.014677,0.012202,-0.000110,-0.002682,-0.084806,0.012112,337.202606,338.297150,25.000000,13.413218,31.960464,33.976089
461773383.905945,-0.107986,0.995224,0.124313,-2.513478,-1.416032,-2.798895,-0.008953,0.010152,-0.001084,-0.020147,-0.094592,0.003533,337.190399,338.284943,25.000000,13.447672,31.720123,33.544937
461773383.939282,-0.105103,1.005920,0.125931,-2.514504,-1.415693,-2.797582,-0.017338,0.007228,-0.000777,-0.001536,-0.040626,0.012894,337.164734,338.259277,25.000000,13.275393,32.097809,33.180122
461773383.972766,-0.106018,0.991302,0.120041,-2.513912,-1.415087,-2.796429,-0.005957,0.007185,-0.003634,-0.022832,-0.007422,0.007517,337.150055,338.244598,25.000000,13.240934,31.994797,33.014297
461773384.005936,-0.112015,1.001633,0.122955,-2.512166,-1.414871,-2.794764,-0.014996,0.005830,-0.004395,-0.006656,0.008459,0.007479,337.135284,338.229828,25.000000,13.172026,32.200806,33.279617
461773384.039266,-0.111298,1.003906,0.120468,-2.502975,-1.414503,-2.787029,-0.018512,0.016095,-0.004513,-0.006736,0.024341,-0.006108,337.093048,338.187592,25.000000,13.723312,32.338150,33.213280
461773384.073216,-0.088242,0.993256,0.118134,-2.500167,-1.414157,-2.784622,-0.002317,0.008535,-0.008035,-0.016642,0.007252,0.002525,337.037018,338.131561,25.000000,14.033409,32.235153,33.246452
461773384.105923,-0.105713,0.999908,0.125320,-2.501554,-1.414604,-2.786728,-0.000999,0.005810,-0.007459,0.004538,0.040385,0.019438,337.023590,338.118134,25.000000,13.619946,31.891800,33.511780
461773384.139252,-0.114807,1.006088,0.132095,-2.496983,-1.414663,-2.783704,-0.021369,0.018252,0.007799,0.013212,0.045182,0.006031,337.008911,338.103455,25.000000,13.413218,31.823120,33.710770
461773384.172658,-0.085983,0.992752,0.131500,-2.496383,-1.413707,-2.784379,0.002649,0.012054,0.007574,-0.039205,0.033038,-0.013770,336.995575,338.090118,25.000000,13.551037,32.097809,33.644447
461773384.205879,-0.094528,1.004547,0.125351,-2.502582,-1.412788,-2.792333,0.010242,0.006445,0.002267,-0.033026,0.093289,0.012521,336.982025,338.076569,25.000000,13.654404,32.200790,33.544945
461773384.239262,-0.103836,1.004578,0.119736,-2.502534,-1.412820,-2.797508,-0.007456,0.017839,-0.005363,-0.018263,0.190216,0.020208,336.950409,338.044952,25.000000,13.895588,31.891800,33.710777
461773384.272616,-0.096603,0.991333,0.111938,-2.499446,-1.412777,-2.797455,-0.010230,0.015480,-0.010585,-0.024491,0.179167,0.014169,336.959900,338.054443,25.000000,12.965296,31.376755,33.876610
461773384.305901,-0.087799,1.005447,0.121902,-2.495587,-1.413210,-2.798976,0.001473,0.009049,-0.008872,-0.005403,0.049977,0.014321,337.308228,338.402771,25.000000,13.068659,31.136414,33.710777
461773384.339259,-0.083893,1.002594,0.124466,-2.496537,-1.413920,-2.801362,0.009111,0.016720,-0.000558,0.002066,0.051151,0.010709,338.021454,339.115997,25.000000,12.689655,31.033417,33.810272
461773384.372621,-0.090759,0.997620,0.128342,-2.498649,-1.414637,-2.805742,0.008255,0.012733,0.002664,0.007017,0.080634,0.020216,337.530518,338.625061,25.000000,13.344305,31.273773,34.241409
461773384.405905,-0.086197,1.001846,0.132263,-2.499354,-1.415063,-2.808828,-0.002232,0.014208,0.007375,0.008263,0.063381,0.008199,337.615601,338.710144,25.000000,13.344305,31.479782,34.506729
461773384.439307,-0.077759,0.998825,0.134018,-2.502268,-1.415096,-2.813057,0.011927,0.013913,0.007696,-0.007878,0.029079,0.005980,338.075043,339.169586,25.000000,12.793018,31.342468,34.042419
461773384.472623,-0.086060,0.997879,0.128342,-2.510885,-1.415195,-2.822826,0.013968,0.005825,0.008584,-0.014081,0.056061,0.023917,338.252228,339.346771,25.000000,12.241735,30.861755,33.710762
461773384.505981,-0.094055,0.999435,0.123047,-2.515136,-1.415367,-2.830088,-0.002030,0.012177,0.002354,-0.010465,0.101423,0.018614,338.273712,339.368256,25.000000,12.414013,30.415375,34.407234
461773384.539324,-0.085403,1.000214,0.123978,-2.515816,-1.415464,-2.832693,-0.001500,0.010300,-0.002086,-0.012780,0.016719,0.012120,338.284088,339.378632,25.000000,12.482924,30.278046,34.407234
461773384.572262,-0.091431,1.002686,0.125290,-2.521685,-1.415755,-2.838398,0.008871,0.012254,-0.001359,-0.011467,-0.004122,0.017220,338.297668,339.392212,25.000000,12.551832,31.033417,34.340897
461773384.605823,-0.090164,0.996033,0.125900,-2.524740,-1.416114,-2.842444,-0.003955,0.016441,0.002318,0.002139,0.044911,0.018056,338.304199,339.398743,25.000000,12.310646,31.411087,34.108742
461773384.639331,-0.083374,1.002029,0.131165,-2.524327,-1.416080,-2.842658,-0.000970,0.007977,0.000238,-0.007714,-0.016606,0.000226,338.312531,339.407074,25.000000,12.379555,32.235138,34.042412
461773384.672548,-0.093384,1.004089,0.129883,-2.534529,-1.416521,-2.850570,-0.000705,0.013494,0.004223,-0.003979,0.004312,0.013470,338.314697,339.409241,25.000000,12.551832,31.720108,33.942917
461773384.705937,-0.089081,0.996567,0.116714,-2.533538,-1.416447,-2.850417,-0.005939,0.015215,-0.007545,-0.014046,0.014062,-0.007446,338.312225,339.406769,25.000000,12.586287,31.205093,33.843414
461773384.739272,-0.083160,1.002365,0.119293,-2.533859,-1.416440,-2.849334,0.008612,0.003085,-0.011424,-0.008786,-0.090238,-0.000265,338.309845,339.404388,25.000000,12.758568,31.033417,34.009239
461773384.772627,-0.085068,1.004868,0.121567,-2.537954,-1.417220,-2.850403,0.001629,0.014272,-0.005974,0.011196,-0.089053,0.008418,338.309601,339.404144,25.000000,12.620741,31.033401,34.141899
461773384.805984,-0.077621,0.997513,0.117706,-2.538544,-1.417904,-2.847839,0.002011,0.013420,-0.005545,0.013728,-0.112558,-0.009709,338.309540,339.404083,25.000000,12.724106,31.411057,33.909744
461773384.839474,-0.084091,1.001572,0.136124,-2.541499,-1.418703,-2.845537,0.007114,0.011315,-0.000159,0.025161,-0.196044,-0.006346,338.310272,339.404816,25.000000,12.482918,31.376755,34.009239
461773384.872666,-0.090073,0.999435,0.147263,-2.545761,-1.419334,-2.843166,-0.000712,0.012318,0.017908,0.041377,-0.198571,-0.006196,338.147278,339.241821,25.000000,12.586285,31.617096,33.909744
461773384.905915,-0.098083,0.996521,0.141998,-2.549514,-1.418880,-2.841942,-0.009980,0.012097,0.023292,0.007500,-0.108809,-0.002471,337.682007,338.776550,25.000000,12.861931,31.342422,33.777100
461773384.939406,-0.098007,0.997238,0.126465,-2.549085,-1.417271,-2.839037,-0.012776,0.005185,0.011892,-0.022586,-0.074426,-0.023787,337.428345,338.522888,25.000000,13.034204,31.170746,33.743927
461773384.972711,-0.108292,0.995300,0.121689,-2.546966,-1.415781,-2.834316,-0.016795,0.007535,-0.003184,-0.025008,-0.078147,-0.017753,337.167938,338.262482,25.000000,13.068663,31.067734,33.511780
461773385.005988,-0.100998,1.001678,0.117447,-2.537119,-1.414263,-2.820944,-0.017159,0.012882,-0.012609,-0.016286,-0.105309,-0.040603,337.000092,338.094635,25.000000,13.137571,31.411087,33.578110
461773385.039201,-0.087036,1.001785,0.127899,-2.533098,-1.413586,-2.812059,0.000019,0.013034,-0.002760,-0.009872,-0.170344,-0.033807,336.811920,337.906464,25.000000,13.309851,31.514084,33.611275
461773385.072610,-0.081161,0.999527,0.130249,-2.534445,-1.412967,-2.809046,0.008511,0.011956,0.001164,-0.007544,-0.099171,-0.033276,336.357758,337.452301,25.000000,13.792223,31.239426,33.743927
461773385.105853,-0.075775,1.004913,0.127701,-2.537570,-1.412903,-2.809299,0.014979,0.013874,-0.001700,-0.003784,-0.083142,-0.016322,336.019348,337.113892,25.000000,14.205690,31.102081,34.009254
461773385.139258,-0.074203,0.993683,0.122955,-2.539644,-1.413073,-2.809953,0.011838,0.016838,-0.002418,-0.006230,-0.088164,-0.018812,336.018585,337.113129,25.000000,13.861137,31.170746,33.412285
461773385.172883,-0.086365,0.995865,0.118622,-2.547225,-1.413570,-2.812734,0.001317,0.008199,-0.011104,0.010051,-0.073344,0.011671,336.023712,337.118256,25.000000,13.654404,31.102081,33.611275
461773385.205916,-0.107010,1.000885,0.122116,-2.542560,-1.414551,-2.806675,-0.018309,0.015554,-0.009375,0.023732,-0.073471,-0.000426,336.052460,337.147003,25.000000,13.275396,31.342422,33.710762
461773385.239254,-0.094589,0.993500,0.134628,-2.536545,-1.414810,-2.796328,-0.017210,0.005076,-0.002546,0.035133,-0.161938,-0.010442,336.055756,337.150299,25.000000,13.619949,31.685776,33.379112
461773385.272228,-0.091843,0.997147,0.138672,-2.536058,-1.415034,-2.793027,-0.006287,0.005606,0.007078,0.038947,-0.174153,0.003128,336.040009,337.134552,25.000000,13.998959,31.994781,32.947960
461773385.305967,-0.097244,0.993332,0.151123,-2.536729,-1.415564,-2.788674,-0.006884,0.009186,0.016299,0.045068,-0.137406,-0.004513,334.584778,335.679321,25.000000,14.584700,31.960449,32.583145
461773385.339270,-0.079483,0.995483,0.151932,-2.536420,-1.414090,-2.781946,-0.001805,-0.000640,0.023811,-0.002362,-0.137475,-0.029376,333.957764,335.052307,25.000000,14.722519,31.891800,32.583153
461773385.372735,-0.080856,1.004028,0.132294,-2.544925,-1.412228,-2.786452,0.010035,0.010577,0.020762,-0.047338,-0.095504,-0.021596,333.956757,335.051300,25.000000,14.929251,31.823120,32.981133
461773385.405932,-0.069885,1.001205,0.119125,-2.551506,-1.410450,-2.792071,0.013050,0.015178,-0.009034,-0.058792,-0.004662,-0.026245,333.970642,335.065186,25.000000,14.963705,31.857437,32.815308
461773385.439252,-0.079422,1.012436,0.100998,-2.556809,-1.410169,-2.796952,0.024537,0.017130,-0.027587,-0.047441,-0.026689,-0.005192,333.962524,335.057068,25.000000,15.135986,31.891800,33.312790
461773385.472586,-0.083206,1.004959,0.094116,-2.557841,-1.411373,-2.796162,-0.000121,0.026414,-0.032942,0.000061,-0.071086,-0.005604,333.958710,335.053253,25.000000,14.894796,31.857468,32.881645
461773385.505947,-0.066147,1.001938,0.095596,-2.556174,-1.411620,-2.790945,0.004376,0.017601,-0.037995,0.028938,-0.151213,-0.020547,333.955109,335.049652,25.000000,14.860342,31.754486,32.981133
461773385.539697,-0.070770,1.002106,0.125793,-2.554494,-1.413907,-2.781497,0.024251,0.011458,-0.021532,0.084187,-0.296227,-0.011356,333.925385,335.019928,25.000000,15.170443,31.926147,32.748978
461773385.572572,-0.072113,0.999161,0.144638,-2.556751,-1.417632,-2.773328,0.011366,0.015384,0.008792,0.114224,-0.313435,0.008570,332.990204,334.084747,25.000000,15.652819,31.926147,32.748978
461773385.605991,-0.084869,0.997406,0.152328,-2.564905,-1.419629,-2.771640,0.009998,0.010565,0.018400,0.054317,-0.289824,0.012761,331.847595,332.942139,25.000000,15.928459,31.926147,32.085670
461773385.639081,-0.118866,0.991531,0.150711,-2.571553,-1.420761,-2.770991,-0.017891,0.004841,0.028977,0.046530,-0.160923,0.013857,331.697693,332.792236,25.000000,15.825090,31.754486,31.853516
461773385.672557,-0.113892,0.977478,0.127182,-2.568678,-1.420065,-2.765947,-0.028127,-0.012145,0.013082,-0.029954,-0.001087,0.004356,331.774048,332.868591,25.000000,15.756178,31.891800,31.919846
461773385.705980,-0.126831,0.986771,0.120148,-2.571279,-1.419471,-2.770292,-0.038119,-0.010881,-0.003736,-0.022601,0.098462,0.036358,331.966492,333.061035,25.000000,15.618357,32.166489,32.118828
461773385.739228,-0.136673,1.001343,0.108749,-2.568104,-1.418673,-2.771573,-0.054790,0.012479,-0.017446,-0.040231,0.131522,0.007829,331.723938,332.818481,25.000000,15.928455,32.132172,32.218330
461773385.772631,-0.110504,0.990936,0.129547,-2.560718,-1.417058,-2.766674,-0.043104,0.000183,-0.012645,-0.038862,0.025760,-0.031372,332.038422,333.132965,25.000000,15.928455,31.788818,32.549980
461773385.805541,-0.093582,0.996933,0.138428,-2.560773,-1.415046,-2.766861,-0.013852,0.006367,0.004060,-0.058752,0.013638,-0.020424,332.094666,333.189209,25.000000,15.825090,31.548462,32.384163
461773385.839286,-0.114090,1.000839,0.142776,-2.563350,-1.412346,-2.773019,-0.017642,0.010421,0.009894,-0.067841,0.201589,0.005691,333.146240,334.240784,25.000000,15.135983,31.617096,32.649483
461773385.872657,-0.100693,0.991852,0.127686,-2.553491,-1.408798,-2.772302,-0.018093,0.012193,-0.001411,-0.094313,0.285023,-0.019752,333.674896,334.769440,25.000000,15.101524,31.445419,33.213280
461773385.906110,-0.093246,1.001480,0.120834,-2.548147,-1.405634,-2.775678,-0.004615,0.006803,-0.010294,-0.120433,0.253222,-0.022077,334.164276,335.258820,25.000000,14.894791,31.651428,33.544930
461773385.939285,-0.058060,1.008759,0.106750,-2.544969,-1.403026,-2.780950,0.013407,0.030047,-0.022780,-0.114245,0.254335,-0.037899,334.933258,336.027802,25.000000,14.722517,31.479767,34.175064
461773385.972546,-0.080170,1.000580,0.127914,-2.545761,-1.403443,-2.788541,0.026113,0.018732,-0.026572,-0.046664,0.179249,-0.023201,335.449280,336.543823,25.000000,14.412418,31.651428,34.274559
461773386.006029,-0.079697,0.992477,0.139099,-2.540858,-1.403988,-2.790309,0.014155,0.006358,0.002132,-0.005217,0.082210,-0.004831,335.857147,336.951691,25.000000,14.274599,31.445419,34.539879
461773386.039269,-0.075714,0.998154,0.171188,-2.546074,-1.403684,-2.798212,0.017590,0.012085,0.033486,-0.018962,0.120427,0.015428,335.804474,336.899017,25.000000,14.309053,31.411087,34.241394
461773386.072628,-0.118805,0.993271,0.172745,-2.546429,-1.402763,-2.805572,-0.015092,0.011963,0.039079,-0.034335,0.286151,0.011219,336.594940,337.689484,25.000000,13.792221,30.964752,34.340889
461773386.105850,-0.084564,0.976532,0.149048,-2.542951,-1.400445,-2.812515,-0.014223,-0.002890,0.017240,-0.091820,0.298540,-0.014966,336.151123,337.245667,25.000000,13.895588,31.136429,33.843414
461773386.139266,-0.084259,0.990692,0.150131,-2.546441,-1.397974,-2.823458,0.015690,-0.005520,0.005980,-0.084011,0.210343,0.021354,336.172455,337.266998,25.000000,13.757767,31.067749,33.710754
461773386.172625,-0.106522,1.004395,0.151413,-2.550172,-1.397320,-2.831248,0.004347,0.016825,0.011465,-0.067906,0.270462,0.031859,336.517944,337.612488,25.000000,13.482126,31.342453,33.710754
461773386.205705,-0.068970,0.995758,0.127716,-2.552905,-1.393661,-2.849037,0.005468,0.007484,-0.011295,-0.115370,0.266860,0.007131,337.343109,338.437653,25.000000,13.068663,31.205109,34.175056
461773386.239258,-0.067627,1.021576,0.124008,-2.560860,-1.393153,-2.864199,0.033474,0.021963,-0.021932,-0.074029,0.200441,0.014217,338.688385,339.782928,25.000000,12.620741,30.758759,35.004181
461773386.272686,-0.052994,1.017151,0.110184,-2.559509,-1.391269,-2.869619,0.032571,0.049031,-0.029377,-0.066692,0.202629,-0.028449,338.904175,339.998718,25.000000,12.207281,30.140732,35.203171
461773386.305901,-0.043732,0.990906,0.115005,-2.556996,-1.390355,-2.870707,0.059245,0.012222,-0.046710,-0.021359,0.023265,-0.025091,339.601196,340.695740,25.000000,12.103914,30.037704,35.302673
461773386.339266,-0.066788,1.007507,0.139404,-2.560693,-1.393200,-2.871035,0.041468,0.011243,-0.021388,0.101456,-0.154952,0.027651,339.776703,340.871246,25.000000,11.655994,30.484070,34.407219
461773386.372606,-0.068085,1.010391,0.160675,-2.562283,-1.396739,-2.865927,0.020420,0.032612,0.008717,0.086616,-0.245850,0.000386,339.567657,340.662201,25.000000,11.828268,30.724396,34.440376
461773386.405930,-0.069901,0.987930,0.161331,-2.563523,-1.398795,-2.858593,0.025542,0.017625,0.015163,0.106525,-0.246013,-0.012877,338.731567,339.826111,25.000000,12.414009,30.758728,34.407211
461773386.439261,-0.067291,0.990372,0.168823,-2.559993,-1.402537,-2.846250,0.020054,0.000725,0.024756,0.165346,-0.295564,-0.009642,338.353760,339.448303,25.000000,12.551830,31.102066,34.208221
461773386.472625,-0.044342,0.983749,0.177536,-2.554098,-1.405898,-2.827242,0.038205,0.003509,0.037154,0.109575,-0.474607,-0.031465,338.013123,339.107666,25.000000,12.517376,31.342422,33.777077
