Timestamp,Accel_X,Accel_Y,Accel_Z,Roll,Pitch,Yaw,RM11,RM12,RM13,RM21,RM22,RM23,RM31,RM32,RM33,UserAcc_X,UserAcc_Y,UserAcc_Z,RotRate_X,RotRate_Y,RotRate_Z,MagHeading,TrueHeading,HeadingAccuracy,MagX,MagY,MagZ
461770993.910101,-0.035400,-0.793808,-0.587769,-0.000887,1.053208,-0.065107,0.997831,-0.065831,0.000439,0.032191,0.493737,0.869015,-0.057425,-0.867116,0.494785,0.002133,0.025738,-0.016323,0.156136,-0.165424,-0.059359,146.384201,147.478745,-1.000000,-5.871869,-40.977943,-12.865429
461770993.943406,-0.014984,-0.759308,-0.651688,-0.000887,1.053208,-0.065107,0.997831,-0.065831,0.000439,0.032191,0.493737,0.869015,-0.057425,-0.867116,0.494785,0.002133,0.025738,-0.016323,0.156136,-0.165424,-0.059359,146.384201,147.478745,-1.000000,-5.871869,-40.977943,-12.865429
461770993.976794,-0.045654,-0.787506,-0.616043,-0.000887,1.053208,-0.065107,0.997831,-0.065831,0.000439,0.032191,0.493737,0.869015,-0.057425,-0.867116,0.494785,0.002133,0.025738,-0.016323,0.156136,-0.165424,-0.059359,146.384201,147.478745,-1.000000,-5.871869,-40.977943,-12.865429
461770994.010133,-0.029572,-0.784271,-0.582352,-0.000887,1.053208,-0.065107,0.997831,-0.065831,0.000439,0.032191,0.493737,0.869015,-0.057425,-0.867116,0.494785,0.002133,0.025738,-0.016323,0.156136,-0.165424,-0.059359,146.384201,147.478745,-1.000000,-5.871869,-40.977943,-12.865429
461770994.042870,-0.054245,-0.781525,-0.580643,-0.000887,1.053208,-0.065107,0.997831,-0.065831,0.000439,0.032191,0.493737,0.869015,-0.057425,-0.867116,0.494785,0.002133,0.025738,-0.016323,0.156136,-0.165424,-0.059359,146.384201,147.478745,-1.000000,-5.871869,-40.977943,-12.865429
461770994.076723,-0.096909,-0.811584,-0.577393,-0.000887,1.053208,-0.065107,0.997831,-0.065831,0.000439,0.032191,0.493737,0.869015,-0.057425,-0.867116,0.494785,0.002133,0.025738,-0.016323,0.156136,-0.165424,-0.059359,146.384201,147.478745,-1.000000,-5.871869,-40.977943,-12.865429
461770994.110071,-0.049088,-0.790924,-0.586151,-0.000887,1.053208,-0.065107,0.997831,-0.065831,0.000439,0.032191,0.493737,0.869015,-0.057425,-0.867116,0.494785,0.002133,0.025738,-0.016323,0.156136,-0.165424,-0.059359,146.384201,147.478745,-1.000000,-5.871869,-40.977943,-12.865429
461770994.143485,-0.059845,-0.801102,-0.579376,-0.192864,0.922372,0.094316,0.991484,-0.059660,0.115756,-0.056876,0.601247,0.797036,-0.117149,-0.796833,0.592734,0.057513,0.000054,0.009574,0.171867,-0.122875,-0.046570,146.384201,147.478745,-1.000000,-5.871869,-40.977943,-12.865429
461770994.176970,-0.064087,-0.808701,-0.589630,-0.176689,0.929963,0.079834,0.992532,-0.061942,0.105087,-0.047679,0.595959,0.801598,-0.112280,-0.800622,0.588555,0.043106,0.000939,0.011086,0.059585,-0.032486,0.001653,146.384201,147.478745,-1.000000,-5.871869,-40.977943,-12.865429
461770994.210134,-0.057678,-0.796036,-0.579926,-0.158040,0.934041,0.062865,0.993537,-0.064249,0.093578,-0.037354,0.593415,0.804029,-0.107189,-0.802328,0.587180,0.047405,0.000684,-0.020059,0.198102,-0.125286,-0.033041,146.384201,147.478745,-1.000000,-5.871869,-40.977943,-12.865429
461770994.243458,-0.055328,-0.802628,-0.542313,-0.151492,0.943574,0.054918,0.993764,-0.067742,0.088571,-0.032215,0.586013,0.809661,-0.106752,-0.807465,0.580176,0.029244,0.010650,0.025168,0.266736,-0.094686,0.000055,146.384201,147.478745,-1.000000,-5.871869,-40.977943,-12.865429
461770994.276686,-0.076797,-0.852966,-0.588394,-0.148275,0.952830,0.051716,0.993929,-0.069124,0.085593,-0.029950,0.578604,0.815058,-0.105864,-0.812674,0.573021,-0.022607,-0.028432,-0.067207,0.199079,-0.011172,-0.050143,146.384201,147.478745,-1.000000,-5.871869,-40.977943,-12.865429
461770994.310127,-0.041641,-0.806076,-0.563644,-0.150370,0.961318,0.051689,0.993741,-0.071584,0.085754,-0.029576,0.571676,0.819947,-0.107719,-0.817351,0.565981,0.019012,0.012970,0.012804,0.233074,-0.104420,-0.020916,146.384201,147.478745,-1.000000,-5.871869,-40.977943,-12.865429
461770994.343421,-0.052643,-0.805267,-0.558701,-0.155517,0.969196,0.051552,0.993199,-0.076620,0.087662,-0.029164,0.565210,0.824431,-0.112716,-0.821381,0.559132,0.038544,0.022963,-0.004314,0.256885,-0.169633,-0.032285,146.384201,147.478745,-1.000000,-5.871869,-40.977943,-12.865429
461770994.376764,-0.067627,-0.843872,-0.540497,-0.158313,0.976780,0.051263,0.992892,-0.079876,0.088237,-0.028679,0.558959,0.828699,-0.115514,-0.825339,0.552695,0.027477,0.001399,0.015249,0.216954,-0.097959,0.017886,146.384201,147.478745,-1.000000,-5.871869,-40.977943,-12.865429
461770994.410124,-0.074387,-0.832489,-0.501221,-0.161411,0.983400,0.051740,0.992599,-0.082551,0.089066,-0.028661,0.553454,0.832386,-0.118008,-0.828778,0.546992,-0.009003,0.005146,0.049510,0.156973,-0.107781,-0.037419,146.384201,147.478745,-1.000000,-5.871869,-40.977943,-12.865429
461770994.443472,-0.062088,-0.831619,-0.535599,-0.163686,0.988301,0.052045,0.992377,-0.084573,0.089644,-0.028618,0.549365,0.835092,-0.119873,-0.831292,0.542756,0.022215,0.010233,0.032289,0.052347,-0.035782,0.023252,146.384201,147.478745,-1.000000,-5.871869,-40.977943,-12.865429
461770994.476776,-0.068512,-0.828857,-0.563080,-0.163166,0.990061,0.052735,0.992505,-0.083613,0.089123,-0.028919,0.547876,0.836060,-0.118734,-0.832371,0.541352,0.020473,0.016235,-0.001541,0.124509,0.014206,0.015936,146.384201,147.478745,-1.000000,-5.871869,-40.977943,-12.865429
461770994.510119,-0.063141,-0.828232,-0.528732,-0.165582,0.997946,0.054760,0.992425,-0.084322,0.089341,-0.029667,0.541217,0.840359,-0.119213,-0.836644,0.534616,0.026581,0.013607,-0.015387,0.323023,-0.092281,0.007534,146.384201,147.478745,-1.000000,-5.871869,-40.977943,-12.865429
461770994.543438,-0.080505,-0.835159,-0.519882,-0.168531,1.007790,0.056883,0.992302,-0.085569,0.089525,-0.030344,0.532868,0.845654,-0.120067,-0.841861,0.526169,0.022279,0.007489,-0.001007,0.293050,-0.018105,0.062542,154.686447,155.780991,25.000000,-8.137325,-39.271072,-13.038231
461770994.576782,-0.076706,-0.857330,-0.515305,-0.171473,1.016341,0.061184,0.992361,-0.084550,0.089835,-0.032192,0.525495,0.850187,-0.119091,-0.846585,0.518759,0.005454,0.005094,-0.001031,0.291602,0.012427,0.026789,152.647263,153.741806,25.000000,-8.387126,-39.159477,-12.963608
461770994.610120,-0.087601,-0.858765,-0.491852,-0.175654,1.027940,0.065472,0.992292,-0.084890,0.090274,-0.033798,0.515477,0.856236,-0.119220,-0.852688,0.508635,0.010608,-0.000133,-0.004533,0.425351,-0.084961,0.046994,152.065399,153.159943,25.000000,-8.524943,-39.365501,-12.631950
461770994.643466,-0.061829,-0.850357,-0.453262,-0.185753,1.043623,0.071830,0.991718,-0.088667,0.092914,-0.036106,0.501795,0.864233,-0.123253,-0.860430,0.494438,0.005314,0.005468,0.002586,0.507652,-0.178938,-0.014885,152.192947,153.287491,25.000000,-8.490489,-39.605865,-12.200787
461770994.677024,-0.101578,-0.869217,-0.472351,-0.192887,1.056734,0.077109,0.991397,-0.090818,0.094259,-0.037878,0.490258,0.870754,-0.125291,-0.866833,0.482600,0.032430,0.020397,0.029337,0.295585,-0.024121,0.057498,153.504837,154.599380,25.000000,-8.318212,-39.914909,-11.570629
461770994.710060,-0.097076,-0.875290,-0.459137,-0.199890,1.068338,0.084281,0.991259,-0.090897,0.095624,-0.040540,0.479872,0.876401,-0.125549,-0.872617,0.471992,0.002011,-0.003497,-0.008278,0.275582,-0.098009,-0.006588,152.957550,154.052094,25.000000,-8.387123,-39.914902,-11.106304
461770994.743450,-0.080780,-0.867538,-0.467285,-0.206970,1.077201,0.087242,0.990704,-0.095007,0.097363,-0.041282,0.471993,0.880635,-0.129621,-0.876468,0.463683,0.010189,0.011968,0.014434,0.250760,-0.126085,-0.002872,154.167343,155.261887,25.000000,-8.249299,-40.052254,-10.044991
461770994.776790,-0.070999,-0.870239,-0.466461,-0.213213,1.085095,0.091039,0.990321,-0.097499,0.098781,-0.042441,0.464895,0.884348,-0.132146,-0.879981,0.456258,0.029979,0.018854,-0.016994,0.279351,-0.072157,0.007789,154.434464,155.529007,25.000000,-8.180390,-40.258286,-10.111324
461770994.810111,-0.090759,-0.890045,-0.451828,-0.218270,1.094131,0.094165,0.990039,-0.099756,0.099353,-0.043141,0.456786,0.888530,-0.134019,-0.883966,0.447933,-0.000882,0.006389,0.003612,0.289272,-0.090615,-0.005472,156.213470,157.308014,25.000000,-7.835838,-40.395638,-9.514336
461770994.843488,-0.080688,-0.872437,-0.438614,-0.221690,1.102643,0.094011,0.989639,-0.103779,0.099218,-0.042359,0.449246,0.892403,-0.137186,-0.887360,0.440196,0.024099,0.014428,-0.022512,0.344127,-0.166778,-0.000844,155.951431,157.045975,25.000000,-8.077024,-40.979393,-9.414833
461770994.876768,-0.086334,-0.879684,-0.401031,-0.231504,1.114323,0.099308,0.988946,-0.108434,0.101134,-0.043702,0.438614,0.897612,-0.141691,-0.892110,0.429026,0.012313,0.030074,0.002803,0.438720,-0.122676,0.039523,155.915833,157.010376,25.000000,-8.180387,-40.876373,-9.116341
461770994.910136,-0.118820,-0.907227,-0.408859,-0.241810,1.124710,0.108630,0.988604,-0.109492,0.103312,-0.046775,0.428895,0.902143,-0.143087,-0.896694,0.418886,0.000285,-0.006900,0.040147,0.259162,-0.086174,0.053600,155.783096,156.877640,25.000000,-8.352662,-40.842041,-8.685177
461770994.942599,-0.087341,-0.889664,-0.374847,-0.251769,1.132650,0.113719,0.987816,-0.114232,0.105691,-0.048143,0.421522,0.905539,-0.147992,-0.899595,0.410886,-0.000876,0.004111,-0.003878,0.274163,-0.195948,-0.026870,153.996307,155.090851,25.000000,-8.249299,-40.258286,-8.519348
461770994.976867,-0.168350,-0.918427,-0.404999,-0.261172,1.141263,0.118405,0.987055,-0.118990,0.107532,-0.049194,0.413531,0.909160,-0.152649,-0.902681,0.402324,0.011874,0.010768,0.035122,0.169400,-0.072424,0.025917,153.093536,154.188080,25.000000,-8.352666,-40.429977,-8.552517
461770995.010047,-0.090775,-0.933029,-0.426315,-0.254451,1.147749,0.109727,0.987116,-0.122163,0.103339,-0.044957,0.408072,0.911842,-0.153563,-0.904739,0.397322,0.050696,0.037223,-0.017137,0.306113,-0.170732,-0.137008,152.114975,153.209518,25.000000,-8.559398,-40.498657,-8.419853
461770995.043404,-0.086227,-0.895630,-0.343109,-0.271115,1.165867,0.115800,0.985460,-0.133180,0.105503,-0.045518,0.391315,0.919130,-0.163695,-0.910569,0.379564,0.011708,0.031893,0.022935,0.294037,-0.156458,-0.007945,152.279358,153.373901,25.000000,-8.800581,-41.013733,-7.458038
461770995.076202,-0.108063,-0.912201,-0.351334,-0.279132,1.171920,0.122039,0.985053,-0.134980,0.107008,-0.047280,0.385494,0.921498,-0.165635,-0.912784,0.373351,-0.001055,0.009297,0.022017,0.116825,-0.018079,0.018619,153.904495,154.999039,25.000000,-8.456032,-41.082405,-6.861046
461770995.110121,-0.103897,-0.922501,-0.341553,-0.280089,1.172863,0.121271,0.984802,-0.136710,0.107125,-0.046879,0.384668,0.921864,-0.167235,-0.912875,0.372413,-0.007942,0.012226,0.037208,-0.049187,-0.027426,-0.032578,153.462036,154.556580,25.000000,-8.593852,-41.013733,-6.595718
461770995.143470,-0.114502,-0.923965,-0.383072,-0.277933,1.171160,0.116570,0.984495,-0.139191,0.106752,-0.045253,0.386443,0.921202,-0.169476,-0.911750,0.374152,0.002443,0.011672,0.010535,-0.123603,-0.079625,-0.043658,153.433975,154.528519,25.000000,-8.387120,-40.945053,-6.728382
461770995.176791,-0.093826,-0.902649,-0.357346,-0.273386,1.166872,0.107890,0.983997,-0.143141,0.106116,-0.042322,0.390745,0.919526,-0.173086,-0.909302,0.378434,0.012289,0.016877,0.021088,-0.186051,-0.095502,-0.080570,152.815475,153.910019,25.000000,-8.593849,-41.013733,-6.595715
461770995.210111,-0.103119,-0.912262,-0.313568,-0.259827,1.156109,0.093662,0.984190,-0.143721,0.103511,-0.037682,0.401138,0.915242,-0.173062,-0.904673,0.389380,0.009883,0.006505,0.090155,-0.697710,0.110643,-0.060928,152.879105,153.973648,25.000000,-8.593849,-41.151085,-6.728378
461770995.243470,-0.092682,-0.874100,-0.384857,-0.231786,1.123863,0.066721,0.984903,-0.141804,0.099284,-0.028815,0.431240,0.901777,-0.170690,-0.891024,0.420644,-0.008260,-0.002779,0.066335,-1.280297,0.083409,-0.137090,150.597916,151.692459,25.000000,-8.869493,-40.601669,-7.259037
461770995.276739,-0.077957,-0.842300,-0.433853,-0.197343,1.078436,0.033548,0.985834,-0.139789,0.092681,-0.015855,0.472441,0.881220,-0.166971,-0.870206,0.463532,0.009033,0.021433,0.059953,-1.531349,0.244081,-0.138170,150.776321,151.870865,25.000000,-8.283753,-40.155273,-9.282173
461770995.310105,-0.084869,-0.848404,-0.509033,-0.168184,1.034399,0.012884,0.987662,-0.131169,0.085544,-0.006584,0.511000,0.859556,-0.156460,-0.849514,0.503832,0.015735,0.027952,0.002703,-1.303080,0.413148,-0.002686,152.135803,153.230347,25.000000,-7.939201,-39.880562,-10.343487
461770995.343642,-0.097687,-0.833023,-0.551941,-0.143710,0.993611,-0.001385,0.989524,-0.121385,0.078148,0.000756,0.545667,0.838002,-0.144364,-0.829164,0.540043,-0.052070,-0.035732,-0.013180,-1.298131,0.261516,-0.123140,151.653564,152.748108,25.000000,-7.456828,-39.880562,-13.262104
461770995.376765,-0.028580,-0.745987,-0.652878,-0.117288,0.948733,-0.025679,0.990360,-0.120567,0.068188,0.014962,0.582521,0.812678,-0.137704,-0.803824,0.578710,0.019757,0.014201,0.011922,-1.504250,0.240929,-0.242849,153.677460,154.772003,25.000000,-6.836637,-39.262482,-15.517395
461770995.409927,-0.031250,-0.755280,-0.679947,-0.097908,0.908310,-0.038492,0.991508,-0.115315,0.060125,0.023670,0.614624,0.788465,-0.127876,-0.780346,0.612134,0.031545,0.042478,-0.040744,-1.032252,0.277979,-0.034649,152.267044,153.361588,25.000000,-7.008915,-38.884766,-16.678207
461770995.443471,-0.043808,-0.751038,-0.683685,-0.087970,0.882761,-0.042780,0.992319,-0.110408,0.055791,0.027158,0.634439,0.772495,-0.120685,-0.765047,0.632565,0.007207,0.011524,-0.071827,-0.649068,0.147430,-0.026760,154.609818,155.704361,25.000000,-6.560997,-38.232353,-17.839020
461770995.476811,-0.016464,-0.739868,-0.633514,-0.080026,0.863950,-0.048631,0.992666,-0.109173,0.051917,0.031570,0.648671,0.760414,-0.116693,-0.753198,0.647361,0.028418,0.020484,-0.025811,-0.601720,0.110182,-0.066287,154.208893,155.303436,25.000000,-7.008912,-38.060661,-18.535507
461770995.510137,-0.073349,-0.712051,-0.731598,-0.075726,0.839494,-0.047474,0.993338,-0.103566,0.050525,0.031693,0.667087,0.744305,-0.110789,-0.737746,0.665926,0.034060,0.004437,0.032411,-0.761985,0.194535,0.186605,154.902893,155.997437,25.000000,-6.836635,-38.026321,-18.900335
461770995.543623,-0.054947,-0.734894,-0.679459,-0.071606,0.823355,-0.044051,0.994159,-0.096346,0.048634,0.029935,0.679105,0.733430,-0.103691,-0.727690,0.678023,-0.006420,0.006776,-0.045351,-0.289723,0.136330,0.033421,155.363861,156.458405,25.000000,-6.802180,-37.854637,-19.795822
461770995.576674,-0.031403,-0.741089,-0.676590,-0.068702,0.814310,-0.043648,0.994512,-0.093408,0.047118,0.029949,0.685717,0.727252,-0.100241,-0.721850,0.684751,-0.005708,0.004641,0.010054,-0.345851,0.102042,0.002853,154.915970,156.010513,25.000000,-6.871089,-37.579926,-20.658142
461770995.610123,-0.062653,-0.687149,-0.740982,-0.064779,0.801320,-0.044444,0.994851,-0.090787,0.045039,0.030912,0.695072,0.718275,-0.096516,-0.713185,0.694300,0.013637,-0.022814,0.017710,-0.425324,0.043867,0.066224,154.635345,155.729889,25.000000,-6.767726,-37.064857,-20.890305
461770995.643475,-0.026428,-0.683121,-0.728439,-0.060672,0.789508,-0.044849,0.995226,-0.087760,0.042699,0.031572,0.703487,0.710007,-0.092348,-0.705269,0.702899,-0.001964,0.018662,-0.033277,-0.162712,0.040833,-0.048856,153.889038,154.983582,25.000000,-6.767726,-36.240753,-21.155634
461770995.676980,-0.035843,-0.695007,-0.693237,-0.056211,0.782939,-0.046973,0.995458,-0.086467,0.039824,0.033285,0.708062,0.705366,-0.089189,-0.700837,0.707724,0.000548,0.017911,-0.018396,-0.062890,0.039607,0.022608,153.729919,154.824463,25.000000,-6.595451,-35.519653,-21.719456
461770995.710414,-0.030426,-0.702713,-0.672867,-0.055480,0.782584,-0.048744,0.995370,-0.087703,0.039320,0.034550,0.708252,0.705114,-0.089689,-0.700491,0.708003,0.004973,0.005498,0.028636,-0.045419,-0.034322,-0.018008,152.300491,153.395035,25.000000,-6.940003,-35.657013,-22.051113
461770995.743475,-0.055267,-0.703690,-0.715622,-0.056135,0.780083,-0.048103,0.995372,-0.087425,0.039883,0.034181,0.710033,0.703338,-0.089807,-0.698720,0.709736,-0.014484,-0.003586,0.000049,-0.140214,0.010312,-0.010621,151.729568,152.824112,25.000000,-7.008915,-35.725693,-22.316442
461770995.776818,-0.027557,-0.684128,-0.697571,-0.053888,0.774415,-0.050325,0.995389,-0.087849,0.038502,0.035959,0.713925,0.699298,-0.088920,-0.694690,0.713792,-0.001888,0.001880,0.018831,-0.241590,0.088979,-0.068273,152.806854,153.901398,25.000000,-6.802186,-35.863045,-22.051117
461770995.810158,-0.025421,-0.687607,-0.710022,-0.048010,0.766487,-0.052760,0.995702,-0.085917,0.034571,0.037988,0.719349,0.693609,-0.084461,-0.689315,0.719522,0.010355,0.008947,0.014901,-0.255151,0.121331,-0.001625,154.674316,155.768860,25.000000,-6.492088,-36.172089,-22.216949
461770995.843471,-0.024902,-0.671936,-0.740585,-0.044158,0.758073,-0.054586,0.995881,-0.084810,0.032056,0.039619,0.725081,0.687523,-0.081552,-0.683422,0.725455,-0.002856,0.002251,-0.000101,-0.276297,0.030364,-0.048472,155.765930,156.860474,25.000000,-6.285356,-36.240768,-22.017950
461770995.876822,-0.012360,-0.650909,-0.751328,-0.040937,0.747637,-0.056921,0.995961,-0.084623,0.030011,0.041717,0.732110,0.679908,-0.079507,-0.675910,0.732683,0.012524,0.024283,-0.028700,-0.280067,0.078453,-0.011162,154.611649,155.706192,25.000000,-6.319810,-36.000397,-22.979767
461770995.910235,-0.008469,-0.662170,-0.742355,-0.037232,0.739967,-0.056757,0.996274,-0.081745,0.027489,0.041892,0.737301,0.674264,-0.075386,-0.670600,0.737979,0.015923,0.020562,-0.010511,-0.182739,0.107750,0.038077,155.796890,156.891434,25.000000,-5.871891,-35.966064,-23.609921
461770995.943467,-0.026169,-0.659668,-0.737061,-0.035614,0.735140,-0.055528,0.996500,-0.079308,0.026411,0.041166,0.740594,0.670691,-0.072751,-0.667256,0.741267,0.000273,0.009619,-0.013402,-0.101623,0.042214,0.014950,154.597534,155.692078,25.000000,-6.078624,-35.622681,-24.140579
461770995.976780,-0.025970,-0.666061,-0.748123,-0.034203,0.731113,-0.056314,0.996546,-0.079048,0.025457,0.041900,0.743251,0.667699,-0.071701,-0.664326,0.743996,0.003667,0.002294,0.014275,-0.140317,0.037406,0.001282,154.046722,155.141266,25.000000,-6.285353,-35.691353,-24.206909
461770996.010157,-0.023376,-0.660538,-0.736893,-0.033339,0.727434,-0.055705,0.996660,-0.077776,0.024896,0.041584,0.745724,0.664955,-0.070283,-0.661699,0.746468,-0.002616,-0.003425,-0.001976,-0.065382,0.017537,0.021580,151.961456,153.056000,25.000000,-6.698817,-35.347969,-24.538570
461770996.043376,-0.010666,-0.645294,-0.761780,-0.032499,0.723877,-0.056283,0.996679,-0.077709,0.024345,0.042147,0.748057,0.662294,-0.069678,-0.659069,0.748848,0.013679,0.017000,-0.012932,-0.080430,0.021223,0.007999,152.699448,153.793991,25.000000,-6.423173,-35.210617,-24.405909
461770996.076779,-0.016327,-0.651993,-0.749893,-0.031781,0.722235,-0.056991,0.996676,-0.077904,0.023842,0.042739,0.749112,0.661064,-0.069360,-0.657847,0.749951,0.005990,0.010963,0.006146,-0.005614,-0.033244,-0.018964,153.760590,154.855133,25.000000,-6.285353,-35.210617,-24.007915
461770996.110108,-0.028290,-0.659729,-0.754425,-0.032166,0.722130,-0.057168,0.996635,-0.078330,0.024133,0.042875,0.749174,0.660984,-0.069855,-0.657725,0.750012,0.002130,0.011891,-0.010929,0.043039,-0.009923,0.018983,154.178650,155.273193,25.000000,-6.285353,-35.073265,-23.543591
461770996.143393,-0.030731,-0.647812,-0.737518,-0.032752,0.722282,-0.056703,0.996630,-0.078256,0.024570,0.042522,0.749093,0.661098,-0.070140,-0.657826,0.749897,-0.003720,0.001369,-0.004528,0.014329,-0.013513,0.012705,153.553802,154.648346,25.000000,-6.664360,-35.382309,-23.444092
461770996.176781,-0.027084,-0.656326,-0.761444,-0.033723,0.722361,-0.058396,0.996427,-0.080584,0.025296,0.043786,0.748968,0.661158,-0.072224,-0.657688,0.749820,0.000653,0.002329,0.005542,-0.035329,-0.067757,-0.043100,152.019897,153.114441,25.000000,-6.767726,-34.935913,-23.808920
461770996.210118,-0.021393,-0.654175,-0.734650,-0.035258,0.723789,-0.060380,0.996149,-0.083607,0.026413,0.045215,0.747937,0.662228,-0.075122,-0.658484,0.748836,0.006104,0.009488,-0.006748,0.153047,-0.106661,-0.044934,151.875320,152.969864,25.000000,-6.457627,-34.832893,-23.974751
461770996.242848,-0.030380,-0.655777,-0.745544,-0.037427,0.727771,-0.061920,0.995844,-0.086680,0.027938,0.046204,0.745228,0.665207,-0.078481,-0.661152,0.746136,0.004760,0.008255,0.009503,0.057044,-0.083999,-0.021503,152.111877,153.206421,25.000000,-6.113078,-34.901573,-23.974751
461770996.276770,-0.017349,-0.657990,-0.742752,-0.038477,0.728150,-0.062388,0.995720,-0.087851,0.028712,0.046536,0.744955,0.665490,-0.079853,-0.661305,0.745854,-0.001637,0.007760,-0.003810,0.043288,-0.087681,-0.032548,152.236267,153.330811,25.000000,-6.181990,-35.313629,-23.709421
461770996.310159,-0.032150,-0.672180,-0.716003,-0.040883,0.729828,-0.063712,0.995402,-0.090811,0.030461,0.047452,0.743777,0.666741,-0.083204,-0.662230,0.744666,-0.002757,0.005136,0.009376,0.035852,-0.059199,0.006143,154.521713,155.616257,25.000000,-6.388722,-35.588341,-23.643087
461770996.343775,-0.036194,-0.664825,-0.742432,-0.041923,0.730124,-0.064453,0.995246,-0.092247,0.031227,0.047990,0.743545,0.666962,-0.084744,-0.662293,0.744437,-0.006584,0.000305,0.020209,-0.057836,-0.044312,-0.041079,154.107117,155.201660,25.000000,-6.492088,-35.622681,-23.742584
461770996.376911,-0.034271,-0.658203,-0.731110,-0.043530,0.728955,-0.066800,0.994890,-0.095608,0.032458,0.049787,0.744207,0.666091,-0.087839,-0.661071,0.745164,0.001314,0.004958,-0.006652,-0.019086,-0.114549,-0.060821,154.255844,155.350388,25.000000,-6.457634,-35.657013,-23.775751
461770996.410136,-0.032944,-0.660461,-0.738647,-0.045669,0.727014,-0.070066,0.994382,-0.100204,0.034110,0.052308,0.745329,0.664642,-0.092023,-0.659123,0.746383,-0.001214,0.009841,0.028000,-0.117615,-0.153550,-0.092906,153.286240,154.380783,25.000000,-6.871095,-36.000397,-23.908417
461770996.443479,-0.028305,-0.658676,-0.767303,-0.047022,0.723033,-0.074841,0.993773,-0.105703,0.035244,0.056064,0.747704,0.661662,-0.096292,-0.655566,0.748974,0.006283,0.001261,-0.009327,-0.130080,-0.138728,-0.085830,152.182083,153.276627,25.000000,-7.112278,-36.034737,-23.875250
461770996.476904,-0.031403,-0.641678,-0.750015,-0.049055,0.720294,-0.077913,0.993250,-0.109986,0.036856,0.058501,0.749331,0.659606,-0.100165,-0.652997,0.750707,0.000189,0.007445,-0.008143,-0.030284,-0.130465,-0.064414,152.535538,153.630081,25.000000,-7.146733,-36.069077,-24.240076
461770996.510164,-0.028748,-0.650360,-0.757889,-0.050741,0.719138,-0.081789,0.992645,-0.114891,0.038160,0.061467,0.749859,0.658736,-0.104297,-0.651546,0.751406,0.009977,0.015136,0.001818,-0.019127,-0.147828,-0.089783,154.081329,155.175873,25.000000,-6.836637,-35.966064,-24.339575
461770996.543502,-0.027496,-0.647598,-0.765991,-0.052386,0.718805,-0.086127,0.991961,-0.120254,0.039407,0.064738,0.749804,0.658486,-0.108733,-0.650641,0.751561,0.010660,0.008125,-0.006328,0.034519,-0.159084,-0.086834,154.944778,156.039322,25.000000,-6.733272,-36.000397,-24.240078
461770996.576759,-0.029358,-0.654221,-0.755569,-0.054182,0.721442,-0.090023,0.991273,-0.125393,0.040663,0.067503,0.747813,0.660468,-0.113227,-0.651960,0.749752,0.009688,0.009437,-0.012547,0.128020,-0.143456,-0.072872,154.932480,156.027023,25.000000,-6.940003,-36.000397,-24.173748
461770996.610150,-0.042252,-0.659271,-0.736588,-0.055848,0.724420,-0.092532,0.990752,-0.129089,0.041802,0.069197,0.745680,0.662701,-0.116718,-0.653680,0.747716,0.003289,0.012692,0.000859,0.065616,-0.100083,-0.050615,154.904770,155.999313,25.000000,-7.043366,-35.554001,-23.344595
461770996.643715,-0.030334,-0.657791,-0.763992,-0.057727,0.725321,-0.094408,0.990281,-0.132214,0.043173,0.070540,0.744954,0.663376,-0.119869,-0.653883,0.747040,0.000921,0.004104,0.010453,0.012006,-0.085051,-0.038972,154.872696,155.967239,25.000000,-7.181187,-35.347969,-23.145599
461770996.676732,-0.025574,-0.653488,-0.745560,-0.059677,0.728400,-0.095165,0.989931,-0.134375,0.044507,0.070909,0.742864,0.665677,-0.122513,-0.655818,0.744912,0.010587,0.009945,-0.020789,0.186695,-0.089328,-0.005886,154.876633,155.971176,25.000000,-6.871089,-35.313629,-23.178762
461770996.710165,-0.053635,-0.671494,-0.727814,-0.061563,0.734865,-0.095283,0.989654,-0.136023,0.045646,0.070585,0.738556,0.670487,-0.124914,-0.660328,0.740516,-0.003640,0.010285,0.008460,0.114259,-0.076772,-0.018788,154.910110,156.004654,25.000000,-6.974455,-35.966064,-23.477255
461770996.743569,-0.036835,-0.666519,-0.743225,-0.063714,0.738796,-0.096757,0.989161,-0.139085,0.047071,0.071419,0.735822,0.673398,-0.128295,-0.662738,0.737780,0.007337,0.004560,0.003878,0.114173,-0.073241,-0.045661,155.457947,156.552490,25.000000,-7.008912,-36.343781,-23.311422
461770996.776777,-0.044617,-0.674393,-0.730362,-0.064433,0.743283,-0.096996,0.989015,-0.140010,0.047406,0.071302,0.732790,0.676709,-0.129485,-0.665895,0.734723,0.004086,0.008145,-0.005633,0.185326,-0.033983,0.008162,155.270554,156.365097,25.000000,-7.250099,-36.652824,-23.211926
461770996.810148,-0.041092,-0.672882,-0.725204,-0.066369,0.747315,-0.097333,0.988695,-0.141828,0.048647,0.071283,0.730045,0.679672,-0.131911,-0.668521,0.731901,-0.006361,0.000290,0.004133,0.048105,-0.081490,-0.039993,155.269180,156.363724,25.000000,-7.387919,-36.721497,-23.211926
461770996.843495,-0.037704,-0.670044,-0.723129,-0.066851,0.747687,-0.099075,0.988381,-0.143891,0.048983,0.072529,0.729668,0.679945,-0.133579,-0.668491,0.731626,0.009554,0.004758,0.001874,0.024381,-0.051851,-0.027054,155.309158,156.403702,25.000000,-7.112275,-37.339592,-23.145596
461770996.876818,-0.049530,-0.672989,-0.728806,-0.067069,0.748888,-0.100511,0.988138,-0.145514,0.049087,0.073495,0.728750,0.680825,-0.134842,-0.669141,0.730799,0.009003,0.010873,0.010768,0.031876,-0.043212,-0.014897,155.369446,156.463989,25.000000,-7.250096,-37.614296,-23.211929
461770996.910173,-0.039978,-0.672852,-0.737579,-0.068257,0.749310,-0.100739,0.987941,-0.146555,0.049936,0.073633,0.728447,0.681134,-0.136199,-0.669243,0.730454,-0.003195,0.002911,-0.008773,0.034380,-0.061666,-0.020791,157.166870,158.261414,25.000000,-6.802180,-37.648636,-23.311428
461770996.943442,-0.054581,-0.680054,-0.705719,-0.069566,0.750643,-0.102407,0.987508,-0.149145,0.050829,0.074754,0.727419,0.682109,-0.138707,-0.669789,0.729482,0.014452,0.014339,-0.002269,0.068070,-0.090083,-0.030021,155.833557,156.928101,25.000000,-7.146736,-37.099228,-23.444092
461770996.976776,-0.058243,-0.687469,-0.717102,-0.071727,0.752760,-0.103704,0.986998,-0.151984,0.052302,0.075548,0.725884,0.683656,-0.141870,-0.670816,0.727928,-0.002279,0.003602,0.022209,0.028187,-0.104664,-0.037507,156.169128,157.263672,25.000000,-6.974461,-36.927536,-23.344593
461770997.010061,-0.046127,-0.671371,-0.734283,-0.073344,0.752363,-0.105287,0.986526,-0.154608,0.053499,0.076725,0.726033,0.683366,-0.144496,-0.670054,0.728113,0.006456,0.006959,-0.005011,-0.035446,-0.069949,-0.024914,156.163300,157.257843,25.000000,-6.974461,-36.584152,-23.211926
461770997.043401,-0.056854,-0.679871,-0.706451,-0.074432,0.752761,-0.106521,0.986174,-0.156577,0.054271,0.077593,0.725668,0.683656,-0.146427,-0.669993,0.727784,0.007548,0.011446,0.001221,0.054345,-0.086326,-0.030174,156.187088,157.281631,25.000000,-6.457631,-36.343781,-23.510422
461770997.076774,-0.036575,-0.676239,-0.727631,-0.076187,0.751814,-0.110514,0.985283,-0.161635,0.055597,0.080561,0.725995,0.682965,-0.150754,-0.668435,0.728332,0.019022,0.006726,0.000702,-0.077894,-0.069801,-0.037461,156.202118,157.296661,25.000000,-6.664360,-35.931725,-23.775751
461770997.110165,-0.057159,-0.679428,-0.734558,-0.075783,0.750960,-0.111267,0.985228,-0.162060,0.055347,0.081172,0.726514,0.682341,-0.150790,-0.667768,0.728936,0.003910,0.003004,-0.014457,0.033084,-0.011126,0.009152,156.207932,157.302475,25.000000,-6.767726,-36.446793,-23.742584
461770997.142830,-0.044678,-0.679688,-0.722427,-0.076394,0.751234,-0.111396,0.985113,-0.162610,0.055778,0.081245,0.726317,0.682541,-0.151501,-0.667848,0.728716,-0.004265,0.006974,-0.002074,0.026844,-0.061608,-0.025771,156.190918,157.285461,25.000000,-7.146733,-36.549805,-23.377758
461770997.176718,-0.052551,-0.680115,-0.731430,-0.077125,0.751725,-0.114271,0.984526,-0.165957,0.056285,0.083295,0.725748,0.682900,-0.154180,-0.667644,0.728341,0.003733,0.002785,-0.003090,-0.004248,-0.022308,-0.026327,156.115265,157.209808,25.000000,-7.525743,-37.476929,-23.012930
461770997.210092,-0.058228,-0.683029,-0.710480,-0.077743,0.752235,-0.115608,0.984203,-0.167715,0.056708,0.084225,0.725290,0.683272,-0.155724,-0.667703,0.727958,-0.001932,0.007781,0.015831,0.022037,-0.078940,-0.037763,156.088715,157.183258,25.000000,-7.629106,-37.167877,-23.112431
461770997.243459,-0.049179,-0.676987,-0.725830,-0.079305,0.752777,-0.117369,0.983657,-0.170520,0.057816,0.085458,0.724773,0.683668,-0.158482,-0.667553,0.727500,-0.005280,-0.000399,0.005057,-0.011668,-0.089952,-0.058648,157.787369,158.881912,25.000000,-6.871092,-37.236557,-22.847101
461770997.276781,-0.062088,-0.676865,-0.730042,-0.079456,0.752501,-0.119069,0.983343,-0.172277,0.057940,0.086713,0.724813,0.683466,-0.159742,-0.667058,0.727679,0.008761,0.006480,0.001849,-0.022911,-0.092391,-0.066034,158.145035,159.239578,25.000000,-6.802180,-36.824493,-22.913433
461770997.310183,-0.051102,-0.675873,-0.723434,-0.080954,0.751699,-0.124756,0.982107,-0.178817,0.059075,0.090901,0.724852,0.682881,-0.164932,-0.665292,0.728137,0.003396,0.004979,0.000598,0.011977,-0.143091,-0.107965,158.162994,159.257538,25.000000,-6.629906,-36.927505,-23.012934
461770997.343756,-0.049210,-0.681519,-0.711716,-0.081851,0.753624,-0.129637,0.981057,-0.184318,0.059620,0.094268,0.723095,0.684286,-0.169237,-0.665703,0.726773,0.010685,0.009679,0.006802,0.080587,-0.127342,-0.090526,158.137619,159.232162,25.000000,-7.112275,-36.858833,-23.145596
461770997.376709,-0.060425,-0.679733,-0.732483,-0.082152,0.754980,-0.132660,0.980433,-0.187564,0.059763,0.096331,0.721886,0.685274,-0.171675,-0.666108,0.725829,0.009851,0.004275,0.006697,-0.006776,-0.035883,-0.046973,157.414795,158.509338,25.000000,-7.215641,-37.030518,-22.913433
461770997.410056,-0.068405,-0.690079,-0.726593,-0.082068,0.755730,-0.135591,0.979887,-0.190426,0.059660,0.098378,0.721092,0.685820,-0.173618,-0.666157,0.725322,-0.007861,0.002211,-0.013905,0.087914,-0.095583,-0.112751,156.766663,157.861206,25.000000,-7.663560,-37.682938,-22.614939
461770997.443466,-0.085892,-0.716400,-0.707321,-0.083226,0.760633,-0.141248,0.978547,-0.197028,0.060219,0.101980,0.717185,0.689380,-0.179016,-0.668450,0.721892,-0.017296,-0.012784,0.008239,0.157692,-0.165025,-0.183495,156.470184,157.564728,25.000000,-7.732472,-37.888969,-22.747604
461770997.476761,-0.117386,-0.720703,-0.677261,-0.083931,0.769630,-0.151727,0.976215,-0.208280,0.060206,0.108548,0.709917,0.695870,-0.187677,-0.672783,0.715640,-0.027883,-0.022590,0.015994,0.267098,-0.240096,-0.350249,157.244904,158.339447,25.000000,-7.594651,-38.438385,-22.813938
461770997.510015,-0.150024,-0.748840,-0.699280,-0.078008,0.779109,-0.168721,0.973608,-0.221390,0.055449,0.119483,0.701436,0.702646,-0.194453,-0.677476,0.709376,-0.061936,-0.018057,0.032115,0.226598,-0.116464,-0.442073,158.644714,159.739258,25.000000,-7.215645,-38.678757,-22.581772
461770997.543474,-0.067001,-0.730637,-0.764847,-0.059637,0.783952,-0.199912,0.969984,-0.239476,0.042206,0.140623,0.694026,0.706083,-0.198382,-0.678955,0.706870,-0.118317,-0.009493,0.062446,-0.189316,-0.047519,-0.965649,159.824356,160.918900,25.000000,-6.905546,-38.781769,-22.349609
461770997.575842,0.303314,-0.567917,-0.489914,-0.043651,0.791101,-0.236385,0.963997,-0.264136,0.030680,0.164650,0.683511,0.711128,-0.208804,-0.680474,0.702393,-0.021230,0.004127,-0.050293,0.570201,-0.406144,-0.835487,161.755676,162.850220,25.000000,-6.388716,-39.708893,-21.653122
461770997.610080,0.041794,-0.673309,-0.407150,-0.038129,0.812881,-0.265821,0.956903,-0.289223,0.026204,0.180583,0.663265,0.726270,-0.227434,-0.690238,0.686909,0.329518,0.158354,0.196996,0.421916,-0.552642,-0.144623,161.008560,162.103104,25.000000,-6.181984,-40.464340,-21.520458
461770997.643884,-0.038986,-0.720947,-0.615479,-0.077989,0.800785,-0.248254,0.952653,-0.299182,0.054237,0.171051,0.674802,0.717902,-0.251383,-0.674635,0.694028,-0.028726,0.084129,0.191113,-0.847481,-0.688666,0.187419,159.113144,160.207687,25.000000,-6.560994,-40.910736,-21.354630
461770997.676766,-0.130508,-0.698761,-0.817581,-0.082499,0.758780,-0.268116,0.945972,-0.318686,0.059799,0.192243,0.699749,0.688037,-0.261112,-0.639367,0.723208,0.020813,-0.032911,0.107729,-1.582000,-0.481225,-0.413196,154.148865,155.243408,25.000000,-7.560197,-41.357124,-22.714437
461770997.710035,-0.082123,-0.641586,-0.815094,-0.079680,0.687833,-0.306175,0.935237,-0.348640,0.061497,0.232879,0.736692,0.634864,-0.266643,-0.579427,0.770172,-0.045085,-0.034630,-0.051651,-1.216261,-0.311922,-0.569471,159.917023,161.011566,25.000000,-7.698018,-41.357124,-24.770737
461770997.743382,-0.023102,-0.600754,-0.895752,-0.064085,0.686876,-0.317617,0.935350,-0.350241,0.049518,0.241483,0.734556,0.634124,-0.258471,-0.581170,0.771644,0.122791,0.058578,-0.217629,0.906525,0.633616,0.168129,162.976181,164.070724,25.000000,-7.215645,-41.494476,-25.964716
461770997.776709,-0.019989,-0.566101,-0.363449,-0.070301,0.720107,-0.305751,0.937322,-0.344440,0.052804,0.226280,0.716871,0.659465,-0.265000,-0.606182,0.749879,-0.043021,0.058818,-0.092742,1.075276,0.270043,0.026638,165.246048,166.340591,25.000000,-7.112278,-41.940872,-26.263210
461770997.810160,-0.014847,-0.565338,-0.492889,-0.073237,0.713884,-0.316144,0.932998,-0.355607,0.055305,0.234988,0.718367,0.654774,-0.272572,-0.597907,0.753798,0.058189,0.076954,0.410415,-1.404447,-0.520682,-0.300422,163.897949,164.992493,25.000000,-7.525743,-42.558960,-26.329544
461770997.843383,0.046051,-0.574112,-0.990662,-0.072499,0.641943,-0.338863,0.926238,-0.372447,0.058016,0.266242,0.755387,0.598753,-0.266828,-0.539142,0.798830,0.100329,0.021895,-0.119765,-2.192424,-0.219460,-0.403388,162.045242,163.139786,25.000000,-7.732472,-42.490280,-26.860199
461770997.876833,-0.148483,-0.599197,-0.927414,-0.066064,0.606498,-0.350065,0.924396,-0.377557,0.054242,0.281792,0.771816,0.569994,-0.257070,-0.511615,0.819857,0.015820,-0.018019,-0.167570,-0.325442,-0.240555,-0.022899,161.125961,162.220505,25.000000,-7.766927,-41.769180,-29.281322
461770997.910138,-0.161865,-0.603989,-0.876099,-0.077415,0.611164,-0.354438,0.919631,-0.387644,0.063338,0.284238,0.768074,0.573821,-0.271086,-0.509701,0.816528,-0.111329,-0.032288,-0.088990,0.179202,-0.450564,-0.306097,163.868958,164.963501,25.000000,-7.698014,-41.631836,-31.138622
461770997.943361,0.028198,-0.511520,-0.808884,-0.077072,0.611658,-0.376371,0.910993,-0.407575,0.063036,0.300911,0.761392,0.574225,-0.282035,-0.504147,0.816267,-0.006117,0.020560,-0.035997,-0.095286,-0.338256,-0.642381,164.445190,165.539734,25.000000,-8.180387,-42.112564,-31.403952
461770997.976788,-0.026993,-0.583862,-0.780670,-0.077483,0.614838,-0.393130,0.903839,-0.423176,0.063230,0.312927,0.754552,0.576826,-0.291809,-0.501571,0.814416,0.086637,0.101377,0.004800,0.293792,-0.271444,-0.221603,166.294662,167.389206,25.000000,-7.939204,-42.833664,-31.768778
461770998.010138,-0.055908,-0.525620,-0.788300,-0.092301,0.627882,-0.382754,0.903470,-0.422113,0.074591,0.302245,0.750714,0.587432,-0.303959,-0.508182,0.805829,-0.047525,0.044311,0.098050,0.528165,-0.597147,0.314068,163.285980,164.380524,25.000000,-8.077024,-43.383072,-31.437115
461770998.043490,-0.104706,-0.692444,-0.926010,-0.105638,0.659439,-0.371372,0.903193,-0.421068,0.083334,0.286808,0.736459,0.612673,-0.319350,-0.529461,0.785931,-0.030512,-0.133558,-0.202015,1.938745,-0.713764,-0.104704,162.761444,163.855988,25.000000,-8.593855,-44.172852,-30.342636
461770998.076899,-0.066208,-0.570618,-0.691162,-0.124288,0.716098,-0.376836,0.892715,-0.440811,0.093518,0.277595,0.701441,0.656446,-0.354966,-0.560059,0.748554,0.047025,0.079633,0.111500,1.142430,-0.443884,-0.111039,163.508957,164.603500,25.000000,-8.938405,-44.790924,-29.281322
461770998.110128,-0.186584,-0.560532,-0.480759,-0.135669,0.730847,-0.363226,0.894090,-0.436418,0.100710,0.264554,0.696027,0.667501,-0.361407,-0.570162,0.737767,-0.085874,0.106969,0.257008,-0.055148,-0.268148,0.287988,162.779770,163.874313,25.000000,-9.455232,-45.718048,-27.457188
461770998.142476,-0.044891,-0.722961,-0.804489,-0.153952,0.723877,-0.347537,0.894505,-0.432043,0.114892,0.255180,0.704450,0.662294,-0.367075,-0.563107,0.740382,0.067819,-0.024717,0.036937,-0.257525,-0.188099,0.619932,162.481842,163.576385,25.000000,-9.489683,-46.164436,-26.296371
461770998.176714,-0.076614,-0.667389,-0.786667,-0.167478,0.712655,-0.321552,0.901025,-0.415025,0.126127,0.239125,0.717848,0.653845,-0.361902,-0.558970,0.746042,0.010481,-0.028635,-0.082113,-0.234608,0.123111,0.562149,161.852982,162.947525,25.000000,-9.661962,-45.992744,-26.661198
461770998.210111,-0.033493,-0.620773,-0.738190,-0.182699,0.704924,-0.304592,0.902786,-0.407220,0.138382,0.228425,0.726601,0.647976,-0.364417,-0.553374,0.748984,0.112305,-0.041599,0.031562,-0.283820,-0.285843,0.460883,162.353424,163.447968,25.000000,-10.282158,-45.512016,-27.390854
461770998.242624,-0.174179,-0.545883,-0.691986,-0.190905,0.696112,-0.296372,0.903492,-0.403115,0.145601,0.224103,0.733887,0.641239,-0.365348,-0.546725,0.753401,0.112200,-0.064755,0.031157,-0.518492,-0.129893,0.507557,160.309952,161.404495,25.000000,-11.143540,-44.653564,-28.286341
461770998.275862,-0.247162,-0.493347,-0.720352,-0.213991,0.659934,-0.274431,0.905342,-0.390138,0.167773,0.214098,0.760470,0.613064,-0.366766,-0.519113,0.772013,-0.038114,0.068890,0.065073,-0.903167,-0.351240,0.556845,159.382568,160.477112,25.000000,-11.798189,-44.275848,-28.783833
461770998.310116,-0.065338,-0.440735,-0.857895,-0.200315,0.620027,-0.276759,0.911119,-0.378994,0.161941,0.222380,0.782892,0.581057,-0.347000,-0.493400,0.797589,-0.084595,0.519076,0.538724,-1.354039,1.289018,-0.366987,159.955887,161.050430,25.000000,-11.798189,-43.039673,-30.707464
461770998.343456,-0.108292,-0.335861,-0.934860,-0.089041,0.572485,-0.303719,0.936044,-0.343854,0.074746,0.251387,0.802086,0.541723,-0.246226,-0.488286,0.837227,0.019036,0.178930,-0.057334,-1.596038,2.762257,-0.466479,171.728043,172.822586,25.000000,-8.800584,-41.837852,-34.587898
461770998.376006,-0.118134,-0.353088,-1.355499,-0.022940,0.528751,-0.331443,0.941560,-0.336263,0.019805,0.280969,0.816444,0.504455,-0.185800,-0.469410,0.863211,-0.206269,0.123397,-0.151926,-1.486108,0.623289,-0.804234,178.929550,180.024094,25.000000,-6.319810,-40.670357,-37.373848
461770998.409180,-0.028015,-0.282196,-0.798447,-0.026090,0.458974,-0.362601,0.930560,-0.365393,0.023388,0.317998,0.838214,0.443029,-0.181483,-0.404827,0.896202,0.108135,0.263707,0.457360,-3.529829,-0.660503,-0.494733,174.279953,175.374496,25.000000,-2.081819,-37.476921,-43.774902
461770998.443420,0.000244,-0.356049,-1.002518,0.038617,0.315475,-0.376963,0.933503,-0.356686,-0.036702,0.349932,0.883901,0.310268,-0.078227,-0.302480,0.949940,-0.052877,0.007045,-0.023815,-3.916843,2.469839,-0.653326,217.989304,219.083847,25.000000,3.741115,-29.682190,-52.431252
461770998.476908,0.036484,-0.155670,-0.960190,0.126389,0.242401,-0.398672,0.925972,-0.357215,-0.122367,0.376846,0.894634,0.240034,0.023730,-0.268379,0.963021,-0.079200,-0.110933,0.035134,-1.312198,2.598730,-0.735966,226.519806,227.614349,25.000000,7.496737,-25.046555,-56.975006
461770998.510054,0.304489,-0.157822,-2.320999,0.225987,0.213012,-0.420744,0.908924,-0.354817,-0.219004,0.399209,0.892155,0.211404,0.120375,-0.279579,0.952547,-0.165217,0.125360,0.002199,-0.585140,3.292288,-1.000847,239.087997,240.182541,25.000000,20.555269,-14.710815,-65.498688
461770998.543406,0.436249,-0.141556,-1.819626,0.289675,0.150824,-0.446997,0.882731,-0.375548,-0.282398,0.427352,0.891512,0.150253,0.195334,-0.253316,0.947457,0.022091,-0.007569,-1.373542,-2.399102,-3.502824,-1.136105,250.503250,251.597794,25.000000,30.064911,-2.898529,-72.397232
461770998.576709,0.337021,-0.387161,-1.180786,0.241330,0.087428,-0.479194,0.871273,-0.429186,-0.238082,0.459303,0.883977,0.087316,0.172984,-0.185428,0.967312,0.066362,-0.283503,-0.179126,-0.984309,-2.072659,-1.456751,259.401306,260.495850,25.000000,32.132225,3.350983,-75.315849
461770998.610153,0.006866,0.032486,-0.887314,0.181413,0.067134,-0.510557,0.864070,-0.470084,-0.180013,0.487562,0.870507,0.067084,0.125168,-0.145733,0.981374,0.087031,-0.251016,-0.195216,0.166420,-2.102652,-0.827882,271.509003,272.603546,25.000000,28.100964,13.137314,-81.650574
461770998.643483,0.146545,-0.144028,-0.940063,0.089118,0.087884,-0.553871,0.851229,-0.517252,-0.088656,0.523953,0.847213,0.087771,0.029711,-0.121165,0.992188,-0.081790,0.120257,0.104874,0.915890,-3.651526,-1.571679,106.479691,107.574242,25.000000,16.627373,13.858444,-87.122971
461770998.676733,-0.047028,0.011337,-0.815475,-0.017716,0.091695,-0.603802,0.822133,-0.569023,0.017641,0.565391,0.819725,0.091567,-0.066564,-0.065306,0.995643,0.185946,-0.167024,-0.026483,-0.559467,-2.431743,-1.463345,91.129639,92.224190,25.000000,4.326857,10.390305,-92.595383
461770998.709634,0.165344,-0.225739,-0.948105,-0.011143,0.058528,-0.645980,0.798068,-0.602464,0.011124,0.600950,0.797143,0.058494,-0.044108,-0.039997,0.998226,0.005890,0.137993,0.116726,-1.286509,0.111562,-1.530845,81.594948,82.689499,25.000000,-0.014503,9.291489,-95.315002
461770998.742810,0.199554,-0.056427,-1.057892,0.006292,-0.000784,-0.712816,0.756505,-0.653957,-0.006292,0.653967,0.756523,-0.000784,0.005273,-0.003521,0.999980,0.210414,-0.224158,-0.994435,0.121384,0.115330,-0.799084,85.498001,86.592552,25.000000,-3.976854,9.806549,-101.583389
461770998.776700,0.002808,-0.019318,-0.998825,0.005822,-0.001704,-0.718944,0.752482,-0.658587,-0.005822,0.658589,0.752501,-0.001704,0.005503,-0.002553,0.999982,0.088492,0.020727,-0.013324,-0.013113,0.010396,0.322141,99.820541,100.915092,25.000000,-5.286150,6.990829,-107.354286
461770998.810057,0.076950,-0.136475,-1.008667,0.005967,-0.002178,-0.708450,0.759349,-0.650656,-0.005967,0.650656,0.759369,-0.002178,0.005948,-0.002228,0.999980,-0.023728,-0.147823,-0.001149,-0.017677,0.005347,0.068391,118.567375,119.661926,25.000000,-6.492082,3.866058,-109.045753
461770998.843026,0.093964,0.103058,-1.005630,0.006071,-0.002537,-0.718820,0.752559,-0.658496,-0.006071,0.658495,0.752581,-0.002537,0.006239,-0.002088,0.999978,0.077258,-0.011341,-0.000739,-0.004479,0.004798,-0.469536,149.260834,150.355377,25.000000,-9.593056,-7.190796,-110.969391
461770998.876718,0.107468,0.275375,-1.003235,0.006099,-0.002653,-0.733228,0.742993,-0.669271,-0.006099,0.669269,0.743015,-0.002653,0.006307,-0.002111,0.999978,0.102162,0.279574,-0.009940,-0.000491,-0.000968,-0.398686,155.822449,156.916992,25.000000,-11.246907,-12.822235,-111.234718
461770998.910055,0.026627,0.048798,-0.999603,0.006044,-0.002732,-0.743123,0.736334,-0.676591,-0.006044,0.676589,0.736356,-0.002732,0.006299,-0.002077,0.999978,0.110213,0.278411,-0.003074,0.001322,-0.001262,-0.226645,161.844238,162.938782,25.000000,-13.934413,-23.192322,-111.433716
461770998.942731,0.010040,0.011856,-1.005646,0.006018,-0.002795,-0.744715,0.735256,-0.677763,-0.006017,0.677760,0.735278,-0.002795,0.006319,-0.002024,0.999978,-0.002432,-0.001666,-0.010062,-0.002914,0.002480,0.005092,163.765533,164.860077,25.000000,-15.519353,-28.274353,-111.168388
461770998.976658,0.008041,0.011749,-1.007019,0.006018,-0.002901,-0.744609,0.735328,-0.677685,-0.006018,0.677681,0.735350,-0.002901,0.006392,-0.001945,0.999978,0.004022,0.008955,-0.005668,-0.004162,0.001252,0.003875,164.252701,165.347244,25.000000,-15.932817,-29.304489,-111.035721
461770999.009890,0.005875,0.011276,-1.002487,0.005959,-0.002976,-0.744633,0.735312,-0.677703,-0.005959,0.677699,0.735334,-0.002976,0.006398,-0.001850,0.999978,0.001060,0.008102,-0.006339,-0.005408,-0.001203,0.002670,164.255997,165.350540,25.000000,-15.863909,-29.579193,-111.433716
461770999.043341,0.008514,0.010880,-1.006119,0.005946,-0.003036,-0.744526,0.735384,-0.677625,-0.005946,0.677620,0.735406,-0.003036,0.006430,-0.001797,0.999978,0.000341,0.009080,-0.005271,-0.004152,0.000038,0.006327,164.268326,165.362869,25.000000,-15.794996,-29.647873,-111.433716
461770999.076723,0.007706,0.012039,-1.003677,0.005968,-0.003142,-0.744310,0.735529,-0.677467,-0.005967,0.677461,0.735552,-0.003142,0.006518,-0.001732,0.999977,0.001738,0.008897,-0.003700,-0.002909,0.000026,0.005117,164.531631,165.626175,25.000000,-15.415990,-29.956917,-111.533218
461770999.110065,0.007614,0.011520,-1.005402,0.005909,-0.003632,-0.744341,0.735507,-0.677492,-0.005909,0.677483,0.735529,-0.003632,0.006807,-0.001332,0.999976,-0.000706,0.008026,-0.006051,-0.000450,-0.001256,-0.003392,164.292587,165.387131,25.000000,-15.519356,-29.853905,-110.969398
461770999.143383,0.009689,0.012985,-1.007782,0.006147,-0.004753,-0.744292,0.735534,-0.677460,-0.006147,0.677444,0.735559,-0.004753,0.007741,-0.000668,0.999970,0.001818,0.006294,-0.004532,-0.002964,-0.001234,-0.003418,164.208710,165.303253,25.000000,-15.415990,-29.682213,-110.803566
461770999.176808,0.007339,0.012131,-1.005859,0.006362,-0.005691,-0.744240,0.735564,-0.677426,-0.006361,0.677402,0.735591,-0.005691,0.008534,-0.000123,0.999964,0.001283,0.006196,-0.003439,-0.001591,0.001085,-0.003045,163.363998,164.458542,25.000000,-16.208458,-29.441841,-110.637733
461770999.210151,0.007446,0.010971,-1.007172,0.006465,-0.006747,-0.744192,0.735591,-0.677396,-0.006465,0.677362,0.735619,-0.006747,0.009326,0.000584,0.999956,-0.000316,0.005841,-0.006040,-0.001598,0.001105,-0.000609,162.371201,163.465744,25.000000,-16.311823,-29.407501,-110.737236
461770999.243424,0.008347,0.012863,-1.004684,0.006574,-0.007163,-0.744125,0.735633,-0.677348,-0.006574,0.677311,0.735662,-0.007163,0.009687,0.000817,0.999953,0.001117,0.002374,-0.005098,0.000913,-0.000097,0.005521,162.027908,163.122452,25.000000,-16.242914,-29.476181,-111.002563
461770999.276766,0.006836,0.012985,-1.007095,0.006694,-0.007698,-0.744025,0.735697,-0.677277,-0.006694,0.677235,0.735727,-0.007698,0.010139,0.001130,0.999948,0.001271,0.004250,-0.007971,-0.004082,-0.000070,0.005480,161.183914,162.278458,25.000000,-16.139549,-29.373169,-111.102051
461770999.310139,0.007309,0.011124,-1.005096,0.006666,-0.008174,-0.743893,0.735785,-0.677183,-0.006666,0.677135,0.735813,-0.008174,0.010440,0.001501,0.999944,0.001223,0.003346,-0.006159,-0.002863,0.002354,0.000585,160.310577,161.405121,25.000000,-16.208460,-29.167137,-111.102051
461770999.343482,0.008362,0.011276,-1.005356,0.006812,-0.008638,-0.743793,0.735849,-0.677112,-0.006812,0.677059,0.735878,-0.008638,0.010862,0.001744,0.999940,0.001031,0.004896,-0.008102,-0.001592,-0.000063,0.007937,159.877213,160.971756,25.000000,-16.484102,-29.098457,-111.168388
461770999.376709,0.006241,0.012589,-1.006073,0.006961,-0.008871,-0.743699,0.735910,-0.677044,-0.006961,0.676988,0.735940,-0.008871,0.011129,0.001816,0.999936,0.002637,0.002131,-0.003054,-0.002870,-0.000100,-0.000614,159.123276,160.217819,25.000000,-16.208460,-29.098457,-110.969391
461770999.409073,0.006714,0.010544,-1.006470,0.006947,-0.009155,-0.743607,0.735971,-0.676978,-0.006947,0.676919,0.736001,-0.009155,0.011310,0.002035,0.999934,-0.000828,0.003464,-0.008367,0.000869,0.002351,0.001830,158.573898,159.668442,25.000000,-16.001728,-29.373169,-110.637726
461770999.443380,0.010300,0.011826,-1.005081,0.006959,-0.009319,-0.743496,0.736045,-0.676897,-0.006959,0.676836,0.736075,-0.009319,0.011430,0.002149,0.999932,0.000610,0.001515,-0.008445,-0.002874,0.003602,0.003009,158.344910,159.439453,25.000000,-15.794996,-29.441841,-110.438721
461770999.476851,0.010193,0.011917,-1.005234,0.007196,-0.009624,-0.743394,0.736110,-0.676824,-0.007196,0.676759,0.736142,-0.009623,0.011810,0.002214,0.999928,0.002906,0.003637,-0.005932,-0.004109,-0.002523,0.003059,157.904312,158.998856,25.000000,-15.932817,-29.235809,-110.173393
461770999.509889,0.006134,0.006027,-1.087418,0.007262,-0.009815,-0.743248,0.736207,-0.676718,-0.007262,0.676651,0.736239,-0.009815,0.011988,0.002312,0.999925,-0.001265,0.002789,0.003908,0.004620,-0.001326,0.004334,157.526627,158.621170,25.000000,-15.726085,-29.098457,-110.571388
461770999.543370,0.009201,0.010864,-0.962967,0.007177,-0.009887,-0.743150,0.736274,-0.676646,-0.007177,0.676578,0.736305,-0.009887,0.011974,0.002424,0.999925,0.002070,0.001069,0.002687,-0.001622,-0.003774,0.000651,157.392578,158.487122,25.000000,-15.588264,-29.098457,-110.505058
461770999.576713,0.008331,0.010880,-1.033371,0.007166,-0.009921,-0.743030,0.736355,-0.676557,-0.007166,0.676489,0.736386,-0.009921,0.011989,0.002458,0.999925,0.002737,0.001325,-0.001265,0.004634,-0.002533,0.008007,157.233887,158.328430,25.000000,-15.105891,-29.647873,-111.035706
461770999.610129,0.005692,0.010025,-0.999619,0.007191,-0.009892,-0.742892,0.736449,-0.676455,-0.007191,0.676387,0.736480,-0.009892,0.011987,0.002421,0.999925,-0.001606,0.004757,-0.029204,0.005867,-0.000097,0.005552,157.147964,158.242508,25.000000,-15.553807,-29.613533,-111.201538
461770999.643351,0.009399,0.010605,-1.005829,0.007149,-0.009888,-0.742826,0.736494,-0.676407,-0.007148,0.676339,0.736524,-0.009887,0.011953,0.002447,0.999926,0.000634,-0.001190,-0.028059,-0.001624,0.001157,0.004262,157.067932,158.162476,25.000000,-15.622716,-29.476181,-111.002541
461770999.676014,0.006943,0.011642,-1.011459,0.007212,-0.009914,-0.742661,0.736604,-0.676286,-0.007211,0.676217,0.736636,-0.009914,0.012016,0.002426,0.999925,0.002188,0.000691,-0.005904,-0.000389,0.001132,0.000612,157.029922,158.124466,25.000000,-15.829448,-29.819565,-110.936211
461770999.709517,0.005371,0.009552,-0.996033,0.007215,-0.009864,-0.742536,0.736689,-0.676193,-0.007214,0.676125,0.736720,-0.009863,0.011985,0.002388,0.999925,-0.000272,0.001779,-0.011534,0.003375,-0.000078,0.006753,156.966797,158.061340,25.000000,-15.450441,-30.128609,-110.903046
461770999.743506,0.009476,0.010864,-1.010834,0.007103,-0.009972,-0.742394,0.736786,-0.676089,-0.007103,0.676020,0.736816,-0.009972,0.011975,0.002545,0.999925,0.001274,-0.000542,-0.000487,-0.001612,-0.001284,0.006728,156.905533,158.000076,25.000000,-15.691628,-30.025597,-111.599533
461770999.775991,0.006516,0.010254,-0.998535,0.007271,-0.010199,-0.742339,0.736820,-0.676050,-0.007270,0.675978,0.736851,-0.010198,0.012252,0.002600,0.999922,0.001915,0.001963,-0.012072,-0.001649,-0.000106,-0.003045,156.873993,157.968536,25.000000,-15.519353,-29.716553,-111.433708
461770999.809881,0.008484,0.007904,-1.000763,0.007204,-0.010236,-0.742260,0.736874,-0.675992,-0.007203,0.675920,0.736904,-0.010235,0.012227,0.002673,0.999922,-0.002671,-0.000683,-0.013079,-0.004110,-0.001269,0.006708,156.798309,157.892853,25.000000,-15.967272,-29.407501,-111.466873
461770999.843401,0.009171,0.012802,-1.011810,0.007229,-0.010198,-0.742102,0.736981,-0.675875,-0.007229,0.675803,0.737011,-0.010198,0.012220,0.002631,0.999922,0.000095,-0.000021,-0.008867,-0.001632,-0.000079,0.001836,156.715439,157.809982,25.000000,-16.242914,-29.407501,-110.670883
461770999.876830,0.006454,0.009048,-1.000473,0.007341,-0.010470,-0.742035,0.737023,-0.675828,-0.007340,0.675752,0.737054,-0.010470,0.012486,0.002756,0.999918,0.000305,0.002927,-0.004827,-0.001648,-0.000098,-0.001825,156.665543,157.760086,25.000000,-16.794197,-29.407501,-110.803543
461770999.910139,0.007828,0.010147,-1.005936,0.007280,-0.010527,-0.741839,0.737156,-0.675683,-0.007280,0.675607,0.737187,-0.010527,0.012479,0.002842,0.999918,-0.002992,0.000856,-0.008154,-0.005368,0.002419,0.006663,156.580200,157.674744,25.000000,-16.311823,-29.338829,-110.471878
461770999.943576,0.009293,0.011230,-1.005585,0.007342,-0.010581,-0.741733,0.737227,-0.675605,-0.007341,0.675528,0.737258,-0.010581,0.012561,0.002841,0.999917,0.001936,0.000909,-0.008796,-0.000389,0.001151,0.003053,156.512131,157.606674,25.000000,-15.967272,-29.682213,-110.737213
461770999.976722,0.007660,0.010056,-1.004593,0.007348,-0.010675,-0.741658,0.737277,-0.675551,-0.007348,0.675473,0.737307,-0.010675,0.012629,0.002907,0.999916,0.001228,0.002020,-0.006218,-0.000379,-0.000061,0.005505,156.486252,157.580795,25.000000,-15.588264,-29.716553,-110.836708
461771000.010221,0.007217,0.011108,-1.007797,0.007373,-0.010671,-0.741559,0.737343,-0.675478,-0.007373,0.675400,0.737374,-0.010671,0.012644,0.002889,0.999916,0.000287,-0.000615,-0.004677,-0.002877,-0.000056,0.004267,156.433899,157.528442,25.000000,-15.622722,-29.682213,-111.068878
461771000.043612,0.007004,0.011520,-1.004105,0.007359,-0.010796,-0.741434,0.737427,-0.675386,-0.007359,0.675307,0.737458,-0.010796,0.012718,0.002992,0.999915,-0.000233,0.001198,-0.006158,-0.001627,0.001179,0.006704,156.389313,157.483856,25.000000,-15.519356,-29.579193,-110.704041
461771000.076702,0.009262,0.012161,-1.004776,0.007386,-0.010831,-0.741330,0.737497,-0.675310,-0.007385,0.675230,0.737528,-0.010831,0.012761,0.003001,0.999914,0.001404,-0.000592,-0.005045,0.000857,-0.001311,0.001868,156.363861,157.458405,25.000000,-15.691630,-29.682213,-110.869873
461771000.110166,0.004501,0.011017,-1.003891,0.007270,-0.010852,-0.741237,0.737561,-0.675241,-0.007269,0.675161,0.737590,-0.010851,0.012689,0.003096,0.999915,-0.002768,0.000165,-0.003976,-0.000377,-0.002513,0.005531,156.310455,157.404999,25.000000,-15.691630,-29.613533,-110.803543
461771000.143388,0.007629,0.009323,-1.004745,0.007159,-0.010875,-0.740457,0.738089,-0.674665,-0.007158,0.674585,0.738117,-0.010874,0.012620,0.003197,0.999915,-0.002428,0.000493,-0.006799,-0.002729,0.001431,0.051835,156.257629,157.352173,25.000000,-15.760542,-29.613533,-111.002541
461771000.176704,0.007660,0.011185,-1.006287,0.007252,-0.010891,-0.739822,0.738516,-0.674197,-0.007251,0.674116,0.738545,-0.010890,0.012697,0.003155,0.999914,0.005749,-0.000850,-0.005304,-0.004102,-0.002469,0.010383,156.212234,157.306778,25.000000,-15.657179,-29.785225,-110.969376
461771000.210349,0.009216,0.011093,-1.005814,0.007203,-0.011002,-0.739509,0.738727,-0.673967,-0.007203,0.673885,0.738755,-0.011001,0.012736,0.003273,0.999914,0.002014,0.000092,-0.005900,-0.005293,0.001132,0.004188,156.186447,157.280991,25.000000,-15.863912,-29.579193,-110.969376
461771000.243414,0.007767,0.011200,-1.004410,0.007250,-0.011099,-0.739510,0.738725,-0.673968,-0.007249,0.673885,0.738753,-0.011099,0.012836,0.003314,0.999912,0.000929,-0.000571,-0.003430,-0.002812,-0.000132,-0.000660,156.134308,157.228851,25.000000,-15.829454,-29.407501,-110.936211
461771000.276752,0.005844,0.011047,-1.005600,0.007213,-0.011145,-0.739445,0.738769,-0.673920,-0.007212,0.673836,0.738797,-0.011144,0.012839,0.003373,0.999912,-0.000025,0.000269,-0.006832,-0.001536,-0.003785,0.005486,156.093262,157.187805,25.000000,-15.484899,-29.544861,-110.737213
461771000.310032,-0.004364,0.060867,-0.999191,0.007229,-0.011211,-0.739304,0.738864,-0.673816,-0.007228,0.673731,0.738891,-0.011211,0.012895,0.003413,0.999911,-0.001384,-0.000164,-0.005689,-0.002767,-0.002519,0.011565,156.074966,157.169510,25.000000,-15.519353,-29.579193,-110.770378
461771000.343577,0.005051,0.090393,-1.006241,0.007565,-0.010975,-0.667722,0.785160,-0.619246,-0.007564,0.619161,0.785187,-0.010975,0.012736,0.003934,0.999911,-0.014507,0.086101,-0.008924,-0.019279,0.021109,2.972217,156.011215,157.105759,25.000000,-16.690830,-29.304489,-110.836708
461771000.376717,0.016846,0.031021,-1.007645,0.008916,-0.010570,-0.573046,0.840169,-0.542252,-0.008916,0.542164,0.840206,-0.010570,0.013223,0.004047,0.999904,-0.004918,0.020604,-0.006901,-0.011322,0.008693,2.728395,150.240112,151.334656,25.000000,-19.309431,-27.724937,-110.704041
461771000.409417,0.005783,-0.007645,-1.005035,0.010046,-0.010169,-0.492224,0.881191,-0.472653,-0.010045,0.472562,0.881239,-0.010169,0.013658,0.004213,0.999898,-0.000264,-0.007483,-0.003734,-0.007717,0.010062,2.308719,145.916595,147.011139,25.000000,-20.928825,-26.385750,-110.206558
461771000.443462,0.027176,-0.037689,-1.002640,0.010645,-0.009741,-0.436055,0.906330,-0.422437,-0.010645,0.422347,0.906382,-0.009740,0.013763,0.004332,0.999896,-0.014780,-0.058248,-0.004163,-0.004986,0.000494,1.235210,141.071091,142.165634,25.000000,-22.651585,-23.363998,-109.941223
461771000.476740,0.020523,0.020737,-1.004578,0.010907,-0.009611,-0.413690,0.915547,-0.402063,-0.010907,0.401973,0.915601,-0.009611,0.013850,0.004415,0.999894,0.011203,-0.005750,-0.006636,-0.001325,0.003568,0.454388,137.426941,138.521484,25.000000,-23.512962,-21.063354,-109.841728
461771000.509557,0.011627,0.007553,-1.002975,0.011036,-0.009662,-0.405768,0.918701,-0.394799,-0.011035,0.394706,0.918756,-0.009662,0.013953,0.004521,0.999892,0.021359,0.048291,-0.003205,-0.003831,0.001477,0.070081,136.885284,137.979828,25.000000,-23.478508,-20.822983,-110.073891
461771000.542842,0.010208,0.009995,-1.005051,0.011041,-0.009771,-0.405585,0.918773,-0.394632,-0.011040,0.394538,0.918828,-0.009770,0.014000,0.004621,0.999891,0.000587,-0.002217,-0.003084,-0.002786,-0.001329,0.006675,135.426987,136.521530,25.000000,-24.374346,-20.342255,-110.339226
461771000.577062,0.011826,0.009018,-1.004761,0.011019,-0.009825,-0.405409,0.918843,-0.394470,-0.011018,0.394375,0.918897,-0.009825,0.014000,0.004682,0.999891,0.000517,0.000536,-0.006747,-0.001556,0.002334,0.004208,134.932770,136.027313,25.000000,-25.028994,-20.445274,-110.173393
461771000.609745,0.013580,0.011490,-1.007187,0.011059,-0.009894,-0.405344,0.918868,-0.394411,-0.011058,0.394315,0.918922,-0.009894,0.014064,0.004730,0.999890,0.000477,-0.000998,-0.001377,-0.000308,-0.001366,0.001815,134.743988,135.838531,25.000000,-25.097904,-20.307922,-110.372391
461771000.643488,0.010040,0.008926,-1.003632,0.011104,-0.009971,-0.405180,0.918931,-0.394261,-0.011103,0.394164,0.918986,-0.009971,0.014135,0.004787,0.999889,0.002478,0.001519,-0.007298,-0.002809,0.001100,0.001772,135.533768,136.628311,25.000000,-24.753355,-20.857330,-109.642738
461771000.676107,0.010162,0.009293,-1.005112,0.011081,-0.010029,-0.405069,0.918975,-0.394160,-0.011080,0.394062,0.919029,-0.010029,0.014136,0.004850,0.999888,0.001386,0.000408,-0.005834,-0.001559,-0.000133,0.001794,135.895752,136.990295,25.000000,-24.339893,-20.788658,-109.974396
461771000.710026,0.010742,0.010300,-1.007126,0.011064,-0.010086,-0.404973,0.919013,-0.394072,-0.011063,0.393974,0.919066,-0.010086,0.014142,0.004911,0.999888,0.000290,-0.000900,-0.004552,-0.002803,-0.000119,0.003005,135.394760,136.489304,25.000000,-24.581081,-20.410934,-109.609573
461771000.742510,0.017197,-0.019806,-1.011765,0.011113,-0.010134,-0.404496,0.919200,-0.393635,-0.011112,0.393536,0.919253,-0.010134,0.014204,0.004942,0.999887,-0.002247,0.000242,-0.005347,-0.000134,0.003857,0.059107,135.357727,136.452271,25.000000,-24.546623,-19.964546,-110.173401
461771000.776734,0.029190,0.016663,-1.006744,0.010529,-0.009594,-0.388401,0.925426,-0.378782,-0.010529,0.378692,0.925473,-0.009594,0.013378,0.004891,0.999899,0.013611,0.006703,-0.002741,-0.004815,0.002758,0.528794,135.307907,136.402451,25.000000,-25.063454,-20.342255,-109.874908
461771000.811120,0.010361,0.007278,-1.003036,0.011717,-0.010137,-0.380909,0.928219,-0.371849,-0.011716,0.371745,0.928280,-0.010137,0.014646,0.005054,0.999880,0.014742,0.007868,-0.004591,-0.001485,-0.002461,0.023779,135.279419,136.373962,25.000000,-25.270185,-20.616966,-109.941238
461771000.843383,-0.002808,0.005356,-1.008392,0.011616,-0.010021,-0.380622,0.928328,-0.371581,-0.011615,0.371480,0.928387,-0.010021,0.014507,0.004988,0.999882,-0.003559,-0.003307,-0.002864,-0.001483,0.001233,0.026183,134.598679,135.693222,25.000000,-25.511372,-20.582642,-109.311081
461771000.876817,0.030670,0.018784,-1.008881,0.010967,-0.009665,-0.369592,0.932380,-0.361312,-0.010966,0.361218,0.932431,-0.009665,0.013717,0.005051,0.999893,0.001730,0.003488,-0.001083,-0.001409,-0.000277,0.425149,133.881866,134.976410,25.000000,-25.718105,-20.033226,-109.377411
461771000.910089,0.013458,0.009003,-1.004929,0.011975,-0.009959,-0.364744,0.934106,-0.356796,-0.011974,0.356692,0.934169,-0.009959,0.014739,0.005031,0.999879,-0.000439,-0.001246,-0.004668,0.003431,-0.000141,0.003054,134.160675,135.255219,25.000000,-25.476915,-20.204918,-109.742241
461771000.943694,0.012299,0.008682,-1.004089,0.011974,-0.009972,-0.364678,0.934129,-0.356735,-0.011974,0.356631,0.934192,-0.009972,0.014743,0.005045,0.999879,-0.001033,0.001701,-0.005065,-0.001562,-0.000124,0.001796,134.095230,135.189774,25.000000,-25.683647,-20.204918,-109.808571
461771000.976796,0.010529,0.009598,-1.006180,0.011934,-0.009989,-0.364587,0.934162,-0.356649,-0.011933,0.356546,0.934225,-0.009989,0.014711,0.005077,0.999879,-0.000138,-0.001200,-0.006408,-0.004059,0.001114,0.001765,134.493546,135.588089,25.000000,-25.614735,-20.616974,-109.609581
461771001.010140,0.010666,0.009216,-1.004517,0.011860,-0.009999,-0.364581,0.934165,-0.356644,-0.011859,0.356540,0.934227,-0.009999,0.014645,0.005112,0.999880,-0.000216,0.000225,-0.004118,-0.000346,-0.000184,-0.007954,134.025803,135.120346,25.000000,-25.821468,-20.273605,-109.410583
461771001.042801,0.010651,0.008804,-1.005035,0.011759,-0.010051,-0.364463,0.934209,-0.356534,-0.011758,0.356430,0.934268,-0.010051,0.014568,0.005198,0.999880,0.001578,-0.000575,-0.003324,-0.002796,-0.000100,0.005447,133.728760,134.823303,25.000000,-26.234932,-20.273605,-109.410583
461771001.076751,0.011566,0.009872,-1.007248,0.011653,-0.010104,-0.364277,0.934276,-0.356360,-0.011652,0.356256,0.934334,-0.010104,0.014488,0.005288,0.999881,-0.000086,-0.000231,-0.007367,-0.001551,0.001122,0.005445,133.382187,134.476730,25.000000,-26.338299,-20.033249,-109.576416
461771001.110033,0.013184,0.009735,-1.004120,0.011618,-0.010107,-0.364185,0.934309,-0.356274,-0.011617,0.356170,0.934367,-0.010106,0.014456,0.005305,0.999881,0.000727,-0.000600,-0.004940,-0.000302,-0.002578,0.003052,133.887558,134.982101,25.000000,-26.200478,-20.307945,-109.908073
461771001.143395,0.011719,0.010651,-1.005997,0.011678,-0.010131,-0.364100,0.934339,-0.356195,-0.011677,0.356090,0.934397,-0.010130,0.014519,0.005307,0.999880,0.000621,-0.001280,-0.004102,-0.000305,-0.001350,0.003040,133.887238,134.981781,25.000000,-26.200478,-20.376617,-110.438728
461771001.176740,0.011810,0.009003,-1.004929,0.011657,-0.010137,-0.364044,0.934359,-0.356143,-0.011656,0.356038,0.934416,-0.010137,0.014501,0.005321,0.999881,0.000063,0.000514,-0.006116,-0.001563,-0.000131,0.000578,133.878586,134.973129,25.000000,-25.924833,-20.376617,-110.173401
461771001.210082,0.011917,0.009079,-1.004532,0.011734,-0.010161,-0.364002,0.934373,-0.356104,-0.011733,0.355999,0.934431,-0.010161,0.014582,0.005318,0.999880,-0.000746,0.000276,-0.003966,-0.001494,0.001057,0.000521,133.714432,134.808975,25.000000,-26.062654,-20.033249,-110.040741
461771001.243201,0.012039,0.009323,-1.004211,0.011714,-0.010175,-0.363880,0.934417,-0.355990,-0.011713,0.355884,0.934475,-0.010175,0.014568,0.005339,0.999880,-0.000224,-0.001035,-0.006178,-0.001478,0.001084,0.005401,133.655045,134.749588,25.000000,-25.683647,-20.204941,-109.808571
461771001.276805,0.011322,0.009995,-1.005127,0.011715,-0.010230,-0.363803,0.934444,-0.355919,-0.011714,0.355812,0.934501,-0.010230,0.014588,0.005391,0.999879,-0.000834,-0.000693,-0.006102,-0.003969,-0.000132,0.005394,133.561203,134.655746,25.000000,-25.511372,-20.239281,-110.107063
461771001.310279,0.014069,0.010147,-1.003830,0.011701,-0.010236,-0.363768,0.934456,-0.355886,-0.011700,0.355780,0.934514,-0.010236,0.014577,0.005402,0.999879,0.000629,0.001239,-0.005004,-0.000234,-0.002623,0.001788,133.504303,134.598846,25.000000,-25.304640,-20.239281,-109.709076
461771001.343282,0.012772,0.009949,-1.006653,0.011677,-0.010288,-0.363584,0.934522,-0.355714,-0.011676,0.355607,0.934579,-0.010288,0.014572,0.005462,0.999879,0.000516,0.000622,-0.005126,-0.002736,-0.001391,0.000537,133.468414,134.562958,25.000000,-25.649193,-19.689865,-109.642738
461771001.376785,0.011063,0.009415,-1.005966,0.011728,-0.010339,-0.363487,0.934555,-0.355625,-0.011727,0.355517,0.934613,-0.010339,0.014637,0.005493,0.999878,0.001929,0.001731,-0.005280,-0.003970,-0.000131,0.005395,133.393829,134.488373,25.000000,-26.028200,-19.449493,-109.476906
461771001.409134,0.011230,0.009277,-1.005829,0.011700,-0.010343,-0.363423,0.934579,-0.355564,-0.011699,0.355457,0.934636,-0.010343,0.014612,0.005508,0.999878,0.000676,-0.001523,-0.003311,-0.001465,-0.001355,0.007867,133.316971,134.411514,25.000000,-25.993746,-19.621185,-109.775398
461771001.443341,0.012344,0.010651,-1.003098,0.011646,-0.010305,-0.363320,0.934616,-0.355467,-0.011645,0.355361,0.934673,-0.010305,0.014547,0.005493,0.999879,0.001600,-0.000478,-0.005645,-0.000237,-0.001394,0.001777,133.261017,134.355560,25.000000,-25.890379,-20.136261,-109.476906
461771001.476424,0.012314,0.010574,-1.004959,0.011677,-0.010310,-0.363263,0.934636,-0.355414,-0.011676,0.355307,0.934693,-0.010310,0.014578,0.005487,0.999879,0.000546,-0.001338,-0.006881,-0.001490,0.001066,0.001743,133.239700,134.334244,25.000000,-25.580280,-20.239281,-109.244743
461771001.510087,0.011459,0.009277,-1.003769,0.011695,-0.010386,-0.363159,0.934672,-0.355318,-0.011694,0.355210,0.934729,-0.010386,0.014621,0.005553,0.999878,-0.000616,0.000250,-0.005371,-0.001491,-0.000167,0.000536,133.207611,134.302155,25.000000,-25.270184,-20.410973,-108.747246
461771001.543394,0.011261,0.009125,-1.004318,0.011642,-0.010388,-0.363128,0.934684,-0.355289,-0.011641,0.355181,0.934740,-0.010388,0.014572,0.005575,0.999878,0.000474,-0.002163,-0.005615,-0.001480,-0.001381,0.002988,133.171234,134.265778,25.000000,-25.201271,-19.998924,-109.078911
461771001.576741,0.012650,0.010254,-1.005569,0.011581,-0.010355,-0.363064,0.934708,-0.355229,-0.011580,0.355121,0.934763,-0.010354,0.014503,0.005566,0.999879,-0.000319,-0.001230,-0.004439,-0.003965,-0.001356,0.005409,133.153809,134.248352,25.000000,-25.373549,-20.239288,-109.112076
461771001.609239,0.012421,0.009918,-1.006027,0.011577,-0.010321,-0.362941,0.934752,-0.355113,-0.011577,0.355006,0.934807,-0.010321,0.014487,0.005538,0.999880,0.000005,0.000223,-0.004774,-0.001477,0.001087,0.005404,133.105377,134.199921,25.000000,-25.890379,-19.930244,-109.476898
461771001.642703,0.012238,0.010376,-1.005478,0.011614,-0.010325,-0.362759,0.934816,-0.354943,-0.011614,0.354836,0.934872,-0.010324,0.014522,0.005530,0.999879,0.001494,-0.001032,-0.003432,-0.000216,-0.002592,0.006671,133.060638,134.155182,25.000000,-25.855925,-20.170616,-109.443733
461771001.677133,0.013138,0.009247,-1.001877,0.011656,-0.010345,-0.362603,0.934870,-0.354798,-0.011655,0.354690,0.934927,-0.010344,0.014567,0.005537,0.999879,0.000582,0.000032,-0.005599,-0.001461,-0.000118,0.009077,133.037201,134.131744,25.000000,-25.752560,-19.930244,-109.344238
461771001.712841,0.010178,0.009171,-1.004379,0.011650,-0.010376,-0.362538,0.934893,-0.354738,-0.011649,0.354630,0.934949,-0.010376,0.014572,0.005569,0.999878,0.000313,-0.000473,-0.006027,-0.000235,-0.001390,0.001779,133.007584,134.102127,25.000000,-25.511372,-20.376633,-109.443741
461771001.743446,0.006973,0.009338,-1.000443,0.011462,-0.010309,-0.362889,0.934772,-0.355064,-0.011461,0.354958,0.934825,-0.010309,0.014375,0.005568,0.999881,0.004515,0.002173,-0.004834,0.000914,-0.007717,-0.032310,132.985611,134.080154,25.000000,-25.614735,-20.754356,-109.410576
461771001.812357,0.014374,0.011047,-1.005432,0.011504,-0.010394,-0.363118,0.934690,-0.355279,-0.011503,0.355171,0.934744,-0.010394,0.014445,0.005630,0.999880,-0.000456,-0.000537,-0.004545,-0.001496,-0.000177,-0.001902,132.962875,134.057419,25.000000,-26.234928,-20.891724,-109.277908
461771002.194662,0.012009,0.008102,-1.005966,0.011523,-0.010572,-0.362571,0.934883,-0.354770,-0.011522,0.354659,0.934936,-0.010572,0.014523,0.005797,0.999878,0.000258,0.000277,-0.007614,0.001016,-0.000156,0.003001,132.938019,134.032562,25.000000,-25.924833,-20.720039,-108.780411
461771002.209974,0.012009,0.008102,-1.005966,0.011577,-0.010548,-0.362509,0.934904,-0.354712,-0.011576,0.354602,0.934958,-0.010548,0.014565,0.005756,0.999877,0.000432,-0.002445,-0.006089,-0.000233,0.001078,0.002979,132.652084,133.746628,25.000000,-26.200478,-19.827271,-109.576408
461771002.243357,0.012939,0.010086,-1.008911,0.011611,-0.010554,-0.362400,0.934942,-0.354610,-0.011610,0.354500,0.934997,-0.010554,0.014598,0.005751,0.999877,0.000429,-0.000712,-0.008149,-0.002643,-0.001372,0.007820,132.633820,133.728363,25.000000,-26.269386,-20.239326,-109.443741
461771002.276708,0.011078,0.008743,-1.007126,0.011615,-0.010580,-0.362372,0.934952,-0.354584,-0.011614,0.354473,0.935006,-0.010580,0.014611,0.005775,0.999877,0.001325,-0.000494,-0.009035,-0.001412,-0.001404,0.002950,132.590149,133.684692,25.000000,-26.579481,-20.342346,-109.211578
461771002.310040,0.009338,0.010025,-1.006638,0.011569,-0.010602,-0.362176,0.935022,-0.354401,-0.011569,0.354290,0.935075,-0.010602,0.014575,0.005815,0.999877,0.000211,-0.000989,-0.009065,-0.002662,-0.000171,0.002928,132.559402,133.653946,25.000000,-26.166018,-20.479698,-109.145241
461771002.343533,0.010391,0.008560,-1.007523,0.011550,-0.010549,-0.362035,0.935072,-0.354269,-0.011549,0.354159,0.935126,-0.010549,0.014537,0.005774,0.999878,-0.000563,-0.001836,-0.005738,-0.002653,-0.000158,0.005369,132.546280,133.640823,25.000000,-26.028196,-20.342346,-109.277908
461771002.376747,0.010254,0.011276,-1.009659,0.011547,-0.010558,-0.361992,0.935088,-0.354228,-0.011546,0.354118,0.935141,-0.010558,0.014538,0.005784,0.999878,0.000203,-0.000304,-0.009247,-0.000159,-0.001403,0.004181,132.518204,133.612747,25.000000,-25.821468,-19.930298,-109.277908
461771002.410036,0.011841,0.009033,-1.009201,0.011512,-0.010562,-0.361917,0.935115,-0.354158,-0.011511,0.354048,0.935168,-0.010562,0.014505,0.005801,0.999878,-0.001059,-0.001758,-0.006363,0.003565,-0.002680,-0.001878,132.486160,133.580704,25.000000,-25.373549,-19.827293,-109.908058
461771002.443463,0.012085,0.009705,-1.006256,0.011516,-0.010549,-0.361829,0.935146,-0.354075,-0.011515,0.353966,0.935199,-0.010549,0.014504,0.005789,0.999878,0.000326,0.000437,-0.008331,-0.000126,-0.000203,0.002895,132.476715,133.571259,25.000000,-25.201271,-19.861633,-110.007561
461771002.476776,0.012360,0.010178,-1.007324,0.011529,-0.010580,-0.361808,0.935153,-0.354056,-0.011528,0.353946,0.935206,-0.010580,0.014527,0.005813,0.999878,-0.000206,-0.000402,-0.008301,-0.002627,0.001029,0.001644,132.475037,133.569580,25.000000,-24.684444,-20.308014,-110.372383
461771002.510107,0.009659,0.010239,-1.006287,0.011544,-0.010629,-0.361700,0.935191,-0.353956,-0.011543,0.353845,0.935244,-0.010628,0.014558,0.005855,0.999877,0.002540,-0.001473,-0.009553,-0.003869,-0.002653,0.000451,132.468124,133.562668,25.000000,-25.201275,-19.930298,-110.073891
461771002.543459,0.012497,0.009720,-1.007431,0.011429,-0.010650,-0.361633,0.935216,-0.353893,-0.011428,0.353782,0.935267,-0.010650,0.014457,0.005917,0.999878,-0.001769,-0.000411,-0.006409,-0.001374,-0.001431,0.001678,132.459045,133.553589,25.000000,-25.166821,-19.827278,-110.040726
461771002.576772,0.012512,0.011017,-1.007965,0.011418,-0.010641,-0.361624,0.935220,-0.353884,-0.011418,0.353774,0.935270,-0.010641,0.014444,0.005913,0.999878,0.000576,-0.001883,-0.010254,-0.001373,-0.000196,0.002886,132.423325,133.517868,25.000000,-25.752556,-19.380882,-109.609558
461771002.610123,0.011658,0.010727,-1.006439,0.011432,-0.010668,-0.361473,0.935273,-0.353743,-0.011431,0.353632,0.935324,-0.010667,0.014465,0.005935,0.999878,-0.000093,-0.000459,-0.008469,-0.000073,0.001038,0.007590,132.390472,133.485016,25.000000,-25.580278,-19.621246,-109.377396
461771002.643568,0.013046,0.008438,-1.007507,0.011400,-0.010648,-0.361411,0.935295,-0.353685,-0.011399,0.353575,0.935346,-0.010648,0.014428,0.005928,0.999878,0.000259,0.000079,-0.006561,-0.001319,-0.001418,0.006385,132.371689,133.466232,25.000000,-25.787010,-19.552574,-109.576393
461771002.676855,0.010803,0.009750,-1.004959,0.011394,-0.010604,-0.361277,0.935343,-0.353559,-0.011393,0.353449,0.935394,-0.010604,0.014406,0.005891,0.999879,-0.000300,-0.001220,-0.006804,-0.000086,-0.000215,0.002722,132.343903,133.438446,25.000000,-25.924833,-19.964630,-110.107056
461771002.710053,0.010376,0.010788,-1.006531,0.011331,-0.010577,-0.361163,0.935384,-0.353452,-0.011330,0.353343,0.935434,-0.010577,0.014337,0.005890,0.999880,-0.000527,-0.000826,-0.005079,-0.002587,0.001016,0.001471,132.310394,133.404938,25.000000,-26.407207,-20.033310,-110.372391
461771002.743420,0.012253,0.010208,-1.005814,0.011367,-0.010597,-0.361077,0.935414,-0.353372,-0.011366,0.353262,0.935464,-0.010596,0.014377,0.005897,0.999879,0.000521,0.000848,-0.007247,0.001156,0.002234,0.002708,132.296051,133.390594,25.000000,-26.545027,-20.376694,-110.372391
461771002.776862,0.012314,0.011307,-1.007599,0.011383,-0.010555,-0.361022,0.935433,-0.353320,-0.011382,0.353211,0.935484,-0.010555,0.014377,0.005853,0.999880,0.000322,-0.001186,-0.008437,-0.000052,-0.000238,0.000213,132.271408,133.365952,25.000000,-25.993742,-20.170662,-110.040726
461771002.820658,0.018570,-0.001282,-1.007462,0.011440,-0.010576,-0.360943,0.935460,-0.353247,-0.011439,0.353137,0.935512,-0.010576,0.014438,0.005854,0.999879,-0.000011,-0.002291,-0.005111,-0.002551,0.003462,0.001377,132.253159,133.347702,25.000000,-25.855923,-20.308014,-110.372391
461771002.852754,0.012360,0.010452,-1.004761,0.011550,-0.010579,-0.360979,0.935446,-0.353281,-0.011549,0.353171,0.935499,-0.010579,0.014541,0.005817,0.999877,0.001726,-0.002507,-0.006119,-0.003786,0.002255,0.003820,132.233765,133.328308,25.000000,-25.821465,-19.998970,-110.339226
461771003.554190,0.011963,0.010315,-1.005508,0.011437,-0.010658,-0.359711,0.935894,-0.352095,-0.011436,0.351984,0.935945,-0.010657,0.014456,0.005949,0.999878,-0.001015,0.000100,-0.004440,0.000122,-0.003922,0.000650,131.999039,133.093582,25.000000,-25.649189,-20.239426,-109.510071
461771003.576825,0.011230,0.010773,-1.003540,0.011421,-0.010630,-0.359728,0.935889,-0.352110,-0.011420,0.351999,0.935940,-0.010629,0.014431,0.005928,0.999878,0.000543,-0.000314,-0.005630,0.002610,-0.001479,0.000644,131.997940,133.092484,25.000000,-25.855923,-20.376778,-109.642738
461771003.610053,0.012100,0.008972,-1.006042,0.011447,-0.010643,-0.359635,0.935921,-0.352024,-0.011446,0.351913,0.935972,-0.010642,0.014459,0.005932,0.999878,0.000731,-0.001151,-0.005325,0.000109,-0.000246,-0.000607,131.989670,133.084213,25.000000,-26.441662,-20.411118,-109.675903
461771003.643505,0.011581,0.010727,-1.006073,0.011405,-0.010684,-0.359641,0.935919,-0.352029,-0.011404,0.351918,0.935970,-0.010683,0.014435,0.005986,0.999878,-0.000067,0.000578,-0.004669,-0.001129,-0.003922,-0.000579,131.968033,133.062576,25.000000,-26.717302,-20.342438,-109.609573
461771003.676777,0.009674,0.008423,-1.003586,0.011434,-0.010742,-0.359538,0.935955,-0.351934,-0.011433,0.351822,0.936005,-0.010742,0.014482,0.006032,0.999877,0.000148,-0.000015,-0.006196,0.001409,0.001009,0.005188,131.951828,133.046371,25.000000,-26.441658,-20.411118,-109.609573
461771003.710110,0.012527,0.010132,-1.006439,0.011386,-0.010695,-0.359509,0.935966,-0.351906,-0.011385,0.351794,0.936016,-0.010695,0.014420,0.006005,0.999878,0.001569,-0.002348,-0.003830,0.000156,-0.001460,0.001543,131.950684,133.045227,25.000000,-26.028196,-20.548470,-109.543243
461771003.743455,0.010834,0.009384,-1.006454,0.011420,-0.010706,-0.359355,0.936020,-0.351762,-0.011419,0.351650,0.936070,-0.010705,0.014455,0.006005,0.999878,0.000986,-0.001382,-0.006424,0.000159,0.001009,0.003959,131.947708,133.042252,25.000000,-25.683643,-20.136421,-109.410576
461771003.776989,0.009949,0.010208,-1.003998,0.011396,-0.010729,-0.359384,0.936010,-0.351790,-0.011395,0.351678,0.936060,-0.010728,0.014441,0.006034,0.999878,0.000919,0.001082,-0.004456,-0.002353,-0.000240,-0.002147,131.943283,133.037827,25.000000,-25.545824,-20.205101,-109.543243
461771003.810100,0.011826,0.007935,-1.004593,0.011433,-0.010644,-0.359398,0.936005,-0.351801,-0.011432,0.351691,0.936056,-0.010644,0.014445,0.005943,0.999878,0.000958,-0.002420,-0.006424,-0.001073,0.000989,-0.001177,131.937515,133.032059,25.000000,-25.787010,-20.033417,-109.377411
461771003.843480,0.013245,0.010422,-1.007599,0.011447,-0.010613,-0.359428,0.935994,-0.351829,-0.011446,0.351719,0.936046,-0.010612,0.014448,0.005907,0.999878,0.001341,-0.000557,-0.005279,-0.003569,-0.001467,-0.003612,131.925095,133.019638,25.000000,-25.959288,-20.136436,-109.609573
461771003.876760,0.011917,0.008957,-1.004990,0.011448,-0.010625,-0.359418,0.935998,-0.351820,-0.011447,0.351710,0.936049,-0.010624,0.014453,0.005918,0.999878,-0.001651,-0.000050,-0.004166,0.001424,-0.001482,-0.002353,131.916672,133.011215,25.000000,-25.993746,-20.239449,-109.443741
461771003.910066,0.011703,0.011490,-1.006027,0.011442,-0.010613,-0.359449,0.935987,-0.351849,-0.011441,0.351738,0.936038,-0.010613,0.014443,0.005910,0.999878,0.000476,-0.001656,-0.005111,-0.002319,0.000996,-0.001186,131.913177,133.007721,25.000000,-25.821468,-20.205109,-109.609573
461771003.943473,0.012299,0.009705,-1.006058,0.011421,-0.010638,-0.359413,0.936000,-0.351816,-0.011420,0.351705,0.936051,-0.010638,0.014433,0.005940,0.999878,-0.000114,-0.001681,-0.005356,-0.002306,-0.001444,0.001279,131.913910,133.008453,25.000000,-25.649189,-20.445480,-109.443741
461771003.976793,0.012161,0.010666,-1.005722,0.011392,-0.010676,-0.359383,0.936010,-0.351788,-0.011391,0.351677,0.936060,-0.010676,0.014418,0.005987,0.999878,0.000252,-0.000239,-0.002807,-0.002302,-0.001437,0.002499,131.902908,132.997452,25.000000,-25.614735,-19.930420,-108.946243
461771004.010263,0.012161,0.009293,-1.004471,0.011377,-0.010749,-0.359276,0.936048,-0.351689,-0.011376,0.351577,0.936097,-0.010749,0.014429,0.006062,0.999878,0.000785,-0.000083,-0.005845,0.001480,-0.002672,0.003508,131.890015,132.984558,25.000000,-25.476915,-19.587036,-108.813576
461771004.043942,0.011322,0.010941,-1.006134,0.011428,-0.010727,-0.359203,0.936073,-0.351620,-0.011427,0.351508,0.936123,-0.010726,0.014468,0.006024,0.999877,0.001238,-0.000747,-0.005753,-0.002267,-0.000200,0.003455,131.880539,132.975082,25.000000,-25.855925,-19.758728,-108.714081
461771004.076781,0.013565,0.008881,-1.007309,0.011199,-0.010571,-0.359260,0.936057,-0.351670,-0.011198,0.351562,0.936105,-0.010571,0.014200,0.005958,0.999881,-0.000242,-0.002179,-0.005230,0.000235,-0.005127,0.002304,131.870773,132.965317,25.000000,-25.821468,-20.136444,-108.946243
461771004.127646,0.012375,0.009888,-1.006882,0.011457,-0.010652,-0.359118,0.936103,-0.351540,-0.011456,0.351429,0.936154,-0.010652,0.014469,0.005945,0.999878,0.000980,-0.000413,-0.004395,0.000224,0.001017,0.003463,131.872620,132.967163,25.000000,-25.752560,-20.411156,-109.344238
461771004.143560,0.013489,0.009552,-1.004608,0.011465,-0.010686,-0.359152,0.936090,-0.351572,-0.011464,0.351461,0.936142,-0.010686,0.014488,0.005974,0.999877,-0.000462,-0.000569,-0.003968,-0.001023,-0.000255,-0.006493,131.871094,132.965637,25.000000,-25.821468,-20.273804,-109.742226
461771004.176817,0.013062,0.009537,-1.003906,0.011508,-0.010702,-0.359157,0.936088,-0.351577,-0.011507,0.351465,0.936140,-0.010701,0.014535,0.005973,0.999876,0.000944,-0.000066,-0.004426,-0.002229,-0.002643,0.004502,131.865280,132.959824,25.000000,-26.028200,-20.136444,-110.007561
461771004.210132,0.012512,0.009323,-1.003967,0.011579,-0.010684,-0.359117,0.936101,-0.351540,-0.011578,0.351427,0.936154,-0.010683,0.014594,0.005932,0.999876,0.001484,-0.001147,-0.004030,-0.002242,-0.000201,0.002038,131.848114,132.942657,25.000000,-26.097109,-19.930420,-109.808563
461771004.243973,0.013702,0.010941,-1.004791,0.011504,-0.010671,-0.359161,0.936087,-0.351581,-0.011503,0.351469,0.936139,-0.010671,0.014521,0.005946,0.999877,-0.000532,0.000834,-0.006333,0.000257,-0.003900,0.000874,131.845627,132.940170,25.000000,-25.752556,-20.136444,-109.675896
461771004.276832,0.012207,0.009003,-1.003754,0.011542,-0.010657,-0.359107,0.936105,-0.351530,-0.011541,0.351418,0.936158,-0.010657,0.014550,0.005920,0.999877,0.001719,-0.000388,-0.004091,0.001496,0.001010,0.002055,131.843079,132.937622,25.000000,-25.855919,-20.445480,-109.642731
461771004.310135,0.011459,0.010361,-1.004623,0.011526,-0.010641,-0.359027,0.936134,-0.351455,-0.011525,0.351344,0.936186,-0.010641,0.014530,0.005912,0.999877,0.001658,-0.002233,-0.005876,-0.002251,-0.001447,-0.001609,131.839874,132.934418,25.000000,-25.993740,-20.308128,-109.311066
461771004.343444,0.010712,0.010818,-1.006165,0.011496,-0.010653,-0.358990,0.936147,-0.351420,-0.011495,0.351309,0.936199,-0.010653,0.014505,0.005934,0.999877,-0.000326,-0.000689,-0.002290,-0.000966,-0.000201,0.001877,131.831665,132.926208,25.000000,-26.338291,-20.170776,-109.311066
461771004.376911,0.011551,0.011063,-1.002533,0.011510,-0.010722,-0.359082,0.936114,-0.351507,-0.011509,0.351395,0.936166,-0.010722,0.014543,0.005992,0.999876,0.001125,-0.000224,-0.006471,-0.002229,-0.000222,-0.003012,131.808136,132.902679,25.000000,-26.476116,-19.827393,-109.178398
461771004.410119,0.010666,0.011032,-1.005798,0.011542,-0.010747,-0.359100,0.936108,-0.351524,-0.011542,0.351411,0.936160,-0.010747,0.014583,0.006004,0.999876,0.001077,0.000743,-0.004290,-0.000991,0.003455,-0.003039,131.791824,132.886368,25.000000,-26.338295,-20.308128,-109.510063
461771004.446293,0.012650,0.010529,-1.005493,0.011476,-0.010777,-0.359046,0.936127,-0.351474,-0.011475,0.351360,0.936178,-0.010777,0.014530,0.006056,0.999876,0.000351,0.000042,-0.005403,-0.003452,0.001058,0.005506,131.784668,132.879211,25.000000,-26.166019,-20.067757,-109.742226
461771004.476729,0.013214,0.010880,-1.001678,0.011426,-0.010662,-0.359017,0.936139,-0.351445,-0.011425,0.351334,0.936190,-0.010662,0.014443,0.005967,0.999878,0.001728,-0.001003,-0.006424,0.006524,-0.010078,-0.002847,131.780594,132.875137,25.000000,-25.855923,-20.376801,-109.642731
461771004.512030,0.009506,0.009415,-1.007324,0.011601,-0.010725,-0.359024,0.936134,-0.351453,-0.011600,0.351340,0.936186,-0.010725,0.014629,0.005964,0.999875,0.001828,0.000659,-0.007388,-0.003451,0.002251,-0.001962,131.770935,132.865479,25.000000,-25.683647,-19.587044,-109.941223
461771004.543392,0.013626,0.011078,-1.002472,0.011539,-0.010775,-0.359000,0.936142,-0.351432,-0.011539,0.351318,0.936194,-0.010775,0.014589,0.006033,0.999875,-0.002032,-0.001360,-0.007449,-0.000927,-0.000174,0.005402,131.764145,132.858688,25.000000,-25.580280,-19.621384,-109.377403
461771004.576774,0.012482,0.010956,-1.004272,0.011635,-0.010848,-0.358898,0.936177,-0.351337,-0.011634,0.351222,0.936230,-0.010848,0.014703,0.006069,0.999873,0.001825,0.001375,-0.005971,-0.000949,0.002254,0.000497,131.750473,132.845016,25.000000,-25.373552,-19.484032,-109.642731
461771004.610034,0.010651,0.010971,-1.003250,0.011619,-0.010886,-0.358808,0.936209,-0.351253,-0.011618,0.351137,0.936261,-0.010885,0.014701,0.006111,0.999873,0.000864,0.000070,-0.004399,-0.000940,-0.000193,0.001742,131.743011,132.837555,25.000000,-25.373552,-19.896088,-109.377411
461771004.643458,0.013672,0.010788,-1.005524,0.011680,-0.010891,-0.358752,0.936227,-0.351201,-0.011679,0.351085,0.936280,-0.010891,0.014760,0.006096,0.999873,-0.001028,0.000080,-0.003378,-0.000934,0.002281,0.005378,131.741501,132.836044,25.000000,-25.821468,-20.067780,-109.675903
461771004.676810,0.010391,0.009171,-1.003326,0.011695,-0.010926,-0.358690,0.936249,-0.351143,-0.011694,0.351027,0.936302,-0.010926,0.014786,0.006124,0.999872,-0.000235,0.000198,-0.006796,-0.000921,-0.000200,-0.000812,131.735809,132.830353,25.000000,-25.821468,-19.861763,-109.543243
461771004.710072,0.012146,0.010666,-1.004440,0.011713,-0.010913,-0.358722,0.936237,-0.351173,-0.011712,0.351057,0.936291,-0.010913,0.014798,0.006106,0.999872,-0.000527,-0.000674,-0.007376,-0.000917,-0.000193,0.000408,131.727158,132.821701,25.000000,-25.649189,-19.896103,-109.642738
461771004.743450,0.011795,0.011536,-1.002945,0.011736,-0.010976,-0.358695,0.936246,-0.351149,-0.011735,0.351031,0.936299,-0.010976,0.014841,0.006157,0.999871,0.000060,-0.000142,-0.005531,-0.000908,0.001054,0.004056,131.721146,132.815689,25.000000,-25.511370,-19.827415,-109.178406
461771004.776770,0.010651,0.010422,-1.004410,0.011692,-0.010995,-0.358662,0.936258,-0.351118,-0.011691,0.351000,0.936311,-0.010995,0.014807,0.006191,0.999871,-0.000781,-0.000985,-0.006202,0.000348,-0.002633,0.004103,131.719421,132.813965,25.000000,-25.442457,-19.827415,-109.311073
461771004.810115,0.011810,0.010330,-1.006165,0.011673,-0.011026,-0.358655,0.936261,-0.351112,-0.011672,0.350994,0.936313,-0.011026,0.014800,0.006226,0.999871,0.000107,-0.000848,-0.006080,0.001581,-0.000197,0.001648,131.719498,132.814041,25.000000,-25.614735,-19.999107,-109.277908
461771004.843470,0.011337,0.010773,-1.007568,0.011698,-0.011025,-0.358643,0.936265,-0.351101,-0.011697,0.350983,0.936317,-0.011025,0.014823,0.006217,0.999871,-0.000452,-0.000909,-0.005363,0.000356,-0.000191,0.000309,131.727264,132.821808,25.000000,-25.442457,-20.376831,-109.841736
461771004.876990,0.013458,0.011276,-1.004028,0.011638,-0.011052,-0.358621,0.936273,-0.351080,-0.011637,0.350962,0.936325,-0.011052,0.014776,0.006263,0.999871,-0.001444,0.000255,-0.004905,-0.000885,-0.001406,0.001532,131.732559,132.827103,25.000000,-25.545824,-20.411163,-109.808563
461771004.910112,0.012680,0.009842,-1.003769,0.011718,-0.011142,-0.358577,0.936287,-0.351040,-0.011717,0.350920,0.936339,-0.011142,0.014882,0.006320,0.999869,0.000811,0.000470,-0.005319,-0.004639,-0.001409,-0.002157,131.728317,132.822861,25.000000,-26.372749,-20.479843,-109.609573
461771004.943486,0.013016,0.012207,-1.004852,0.011734,-0.011105,-0.358580,0.936286,-0.351043,-0.011733,0.350923,0.936338,-0.011105,0.014884,0.006280,0.999870,-0.000945,-0.000195,-0.004067,0.002851,0.001032,0.001537,131.719727,132.814270,25.000000,-26.924034,-20.754547,-109.344238
461771004.976818,0.010849,0.011139,-1.003357,0.011711,-0.011070,-0.358551,0.936297,-0.351015,-0.011710,0.350896,0.936349,-0.011070,0.014851,0.006256,0.999870,-0.001029,-0.000373,-0.005379,0.001602,-0.000196,0.000320,131.718246,132.812790,25.000000,-26.786213,-20.891907,-109.344238
461771005.009901,0.010300,0.010696,-1.003983,0.011689,-0.011049,-0.358581,0.936286,-0.351043,-0.011688,0.350925,0.936339,-0.011049,0.014822,0.006243,0.999871,-0.000534,-0.001161,-0.006630,-0.002115,-0.001405,-0.001022,131.728012,132.822556,25.000000,-26.234932,-21.029259,-109.211578
461771005.043548,0.012314,0.012360,-1.003448,0.011695,-0.011055,-0.358571,0.936290,-0.351034,-0.011694,0.350915,0.936342,-0.011055,0.014831,0.006247,0.999870,0.000620,0.001305,-0.003578,-0.000864,-0.001404,0.000208,131.736603,132.831146,25.000000,-25.614738,-20.411179,-109.609573
461771005.076748,0.010483,0.010925,-1.004410,0.011725,-0.011056,-0.358508,0.936312,-0.350975,-0.011724,0.350856,0.936364,-0.011056,0.014858,0.006238,0.999870,0.000758,-0.000588,-0.005989,-0.004596,-0.000139,0.003828,131.741898,132.836441,25.000000,-25.580280,-20.445518,-109.510071
461771005.110137,0.012741,0.011322,-1.003738,0.011672,-0.011161,-0.358523,0.936306,-0.350990,-0.011671,0.350870,0.936358,-0.011161,0.014846,0.006355,0.999870,0.000368,0.001412,-0.004388,-0.003343,-0.001365,0.005070,131.738525,132.833069,25.000000,-25.959288,-20.205162,-109.675903
461771005.143505,0.012344,0.013245,-1.003998,0.011670,-0.011208,-0.358529,0.936304,-0.350996,-0.011669,0.350875,0.936355,-0.011208,0.014860,0.006400,0.999869,0.000676,0.002037,-0.004129,0.001626,-0.001420,-0.000991,131.735947,132.830490,25.000000,-26.097109,-20.411194,-109.277916
461771005.176768,0.011383,0.010559,-1.003952,0.011594,-0.011160,-0.358530,0.936305,-0.350996,-0.011593,0.350876,0.936355,-0.011160,0.014773,0.006381,0.999871,-0.000805,-0.000799,-0.006279,-0.000854,-0.000187,-0.003556,131.726028,132.820572,25.000000,-25.855923,-19.964790,-109.510078
461771005.210159,0.012711,0.010468,-1.006180,0.011600,-0.011170,-0.358529,0.936306,-0.350995,-0.011599,0.350875,0.936356,-0.011170,0.014782,0.006388,0.999870,-0.000384,0.000045,-0.004189,-0.000845,0.001060,0.000092,131.723099,132.817642,25.000000,-25.614735,-19.861786,-109.609581
461771005.243470,0.010651,0.009232,-1.006195,0.011654,-0.011090,-0.358543,0.936300,-0.351007,-0.011653,0.350889,0.936352,-0.011090,0.014804,0.006294,0.999871,-0.001002,-0.001858,-0.006324,0.000409,-0.000166,0.001335,131.717438,132.811981,25.000000,-25.855923,-19.964813,-109.775406
461771005.276830,0.013535,0.011292,-1.004486,0.011700,-0.011079,-0.358519,0.936308,-0.350985,-0.011700,0.350866,0.936360,-0.011079,0.014843,0.006268,0.999870,0.000233,-0.001084,-0.004631,0.000409,-0.000165,0.001335,131.718918,132.813461,25.000000,-26.062654,-20.582909,-109.443741
461771005.310164,0.013412,0.010284,-1.003418,0.011687,-0.011119,-0.358515,0.936309,-0.350982,-0.011686,0.350862,0.936361,-0.011118,0.014845,0.006310,0.999870,0.001650,-0.000559,-0.003991,-0.003325,-0.000135,0.003746,131.721466,132.816010,25.000000,-25.890377,-20.479889,-109.344238
461771005.343446,0.011383,0.013077,-1.001465,0.011758,-0.011102,-0.358480,0.936321,-0.350949,-0.011757,0.350830,0.936373,-0.011102,0.014905,0.006270,0.999869,0.001656,-0.000817,-0.003549,-0.000833,0.001081,0.003753,131.722122,132.816666,25.000000,-25.821468,-20.342537,-109.277908
461771005.376807,0.012772,0.011047,-1.003586,0.011690,-0.011175,-0.358431,0.936339,-0.350903,-0.011689,0.350783,0.936390,-0.011175,0.014866,0.006363,0.999869,-0.001358,0.000590,-0.007547,-0.002060,-0.000145,0.001222,131.719025,132.813568,25.000000,-25.718102,-20.102196,-109.244743
461771005.409212,0.011826,0.011505,-1.004486,0.011737,-0.011151,-0.358430,0.936338,-0.350903,-0.011736,0.350783,0.936390,-0.011151,0.014903,0.006324,0.999869,-0.000628,-0.001294,-0.003366,-0.000821,-0.000164,-0.001208,131.715347,132.809891,25.000000,-26.097111,-20.205208,-109.012573
461771005.443475,0.010895,0.011002,-1.004150,0.011727,-0.011155,-0.358338,0.936371,-0.350817,-0.011726,0.350697,0.936423,-0.011155,0.014894,0.006333,0.999869,-0.001487,-0.000733,-0.005685,0.000449,-0.001363,0.004914,131.714935,132.809479,25.000000,-25.787014,-20.170868,-109.178406
461771005.476843,0.011642,0.011230,-1.005463,0.011725,-0.011138,-0.358357,0.936364,-0.350834,-0.011724,0.350714,0.936416,-0.011138,0.014886,0.006318,0.999869,-0.000829,-0.000137,-0.004281,-0.003321,0.002302,-0.001252,131.717178,132.811722,25.000000,-25.614738,-20.067856,-109.211578
461771005.510055,0.010651,0.012009,-1.004456,0.011633,-0.011123,-0.358383,0.936356,-0.350858,-0.011632,0.350739,0.936407,-0.011123,0.014795,0.006335,0.999870,-0.000554,-0.001296,-0.002952,-0.000830,-0.001411,-0.004855,131.716385,132.810928,25.000000,-25.787014,-20.170868,-109.576408
461771005.543426,0.010605,0.011383,-1.003418,0.011665,-0.011183,-0.358331,0.936374,-0.350810,-0.011664,0.350690,0.936425,-0.011182,0.014846,0.006380,0.999869,0.001061,-0.000776,-0.004067,-0.000805,0.002299,-0.001314,131.717667,132.812210,25.000000,-26.166019,-20.479919,-109.742241
461771005.576389,0.012802,0.010132,-1.004089,0.011427,-0.010965,-0.358509,0.936316,-0.350973,-0.011426,0.350857,0.936365,-0.010965,0.014547,0.006258,0.999875,-0.000821,0.000418,-0.003543,0.002942,-0.005101,-0.004871,131.712845,132.807388,25.000000,-26.338295,-20.376900,-110.107071
461771005.611080,0.012833,0.012634,-1.003738,0.011447,-0.010996,-0.358439,0.936340,-0.350908,-0.011446,0.350792,0.936389,-0.010995,0.014577,0.006280,0.999874,-0.001131,-0.003381,-0.005589,-0.007038,0.006029,0.002262,131.707169,132.801712,25.000000,-26.338295,-20.239548,-109.974403
461771005.643416,0.012009,0.011292,-1.003387,0.011714,-0.011174,-0.358350,0.936367,-0.350828,-0.011713,0.350707,0.936418,-0.011174,0.014888,0.006355,0.999869,0.000922,-0.000035,-0.004114,-0.002049,0.002312,-0.000102,131.694458,132.789001,25.000000,-26.028200,-19.930511,-109.609581
461771005.676789,0.011276,0.010986,-1.004272,0.011769,-0.011230,-0.358319,0.936377,-0.350800,-0.011768,0.350678,0.936429,-0.011230,0.014959,0.006388,0.999868,0.000240,0.000062,-0.003520,0.000455,-0.000147,0.001162,131.686356,132.780899,25.000000,-26.062654,-20.308235,-109.311089
461771005.710050,0.011536,0.009476,-1.006439,0.011682,-0.011147,-0.358265,0.936397,-0.350748,-0.011681,0.350628,0.936448,-0.011147,0.014849,0.006342,0.999870,-0.000954,-0.001625,-0.007607,-0.000751,-0.002568,0.004754,131.689041,132.783585,25.000000,-25.442461,-20.102203,-109.576416
461771005.743450,0.012436,0.011398,-1.004440,0.011696,-0.011132,-0.358249,0.936402,-0.350733,-0.011695,0.350614,0.936454,-0.011132,0.014856,0.006323,0.999870,0.002557,-0.001656,-0.003167,0.000473,-0.001379,-0.001348,131.686218,132.780762,25.000000,-25.787014,-20.170883,-109.841743
461771005.776785,0.011627,0.011368,-1.005066,0.011707,-0.011086,-0.358261,0.936399,-0.350743,-0.011706,0.350624,0.936451,-0.011086,0.014850,0.006277,0.999870,0.001066,-0.000832,-0.006081,0.000485,-0.001359,0.002312,131.680267,132.774811,25.000000,-25.614738,-19.655823,-110.339233
461771005.810144,0.012848,0.011322,-1.006683,0.011677,-0.011050,-0.358140,0.936441,-0.350630,-0.011676,0.350512,0.936493,-0.011050,0.014809,0.006255,0.999871,-0.001193,-0.000826,-0.007209,-0.000764,0.001108,0.003498,131.674881,132.769424,25.000000,-25.993746,-19.964867,-110.107071
461771005.843458,0.011322,0.009659,-1.004700,0.011615,-0.011051,-0.358118,0.936450,-0.350609,-0.011614,0.350491,0.936501,-0.011051,0.014751,0.006278,0.999871,-0.001009,-0.002003,-0.004340,-0.002021,-0.001367,-0.001367,131.664200,132.758743,25.000000,-25.890377,-19.724495,-109.808571
461771005.876864,0.016129,0.008148,-1.007553,0.011639,-0.010996,-0.358118,0.936450,-0.350608,-0.011638,0.350491,0.936502,-0.010996,0.014754,0.006218,0.999872,-0.000377,-0.000940,-0.005988,0.001763,-0.001343,0.004687,131.640274,132.734818,25.000000,-26.234926,-19.724487,-109.410576
461771005.910376,0.012085,0.009964,-1.008011,0.011682,-0.010945,-0.358144,0.936440,-0.350632,-0.011681,0.350515,0.936493,-0.010945,0.014777,0.006155,0.999872,-0.000176,-0.000340,-0.004843,-0.004502,0.007262,0.002113,131.629547,132.724091,25.000000,-26.028194,-19.587128,-109.078911
461771005.943470,0.012009,0.011597,-1.004135,0.011686,-0.011036,-0.358112,0.936451,-0.350604,-0.011685,0.350486,0.936503,-0.011036,0.014812,0.006239,0.999871,-0.002255,0.000271,-0.003623,-0.003256,0.001094,-0.002696,131.606842,132.701385,25.000000,-26.166018,-19.724487,-109.277908
461771005.976923,0.011398,0.010635,-1.002396,0.011707,-0.011031,-0.358087,0.936460,-0.350580,-0.011706,0.350462,0.936512,-0.011031,0.014830,0.006228,0.999871,0.001203,-0.001036,-0.004234,-0.000750,0.001103,0.000984,131.604431,132.698975,25.000000,-25.614735,-19.999176,-109.344238
461771006.009948,0.013260,0.008606,-1.003677,0.011696,-0.010997,-0.358041,0.936476,-0.350537,-0.011695,0.350419,0.936528,-0.010997,0.014808,0.006200,0.999871,-0.000754,-0.000850,-0.003028,0.000508,-0.000116,0.003446,131.605408,132.699951,25.000000,-25.649193,-20.033516,-109.775406
461771006.043432,0.011200,0.010147,-1.003372,0.011795,-0.011000,-0.358078,0.936461,-0.350572,-0.011794,0.350454,0.936515,-0.011000,0.014901,0.006167,0.999870,-0.000167,-0.000547,-0.002907,-0.001976,-0.000118,-0.000303,131.609970,132.704514,25.000000,-25.235729,-20.033516,-109.244751
461771006.076757,0.011337,0.010193,-1.006210,0.011719,-0.011010,-0.358108,0.936452,-0.350599,-0.011718,0.350481,0.936505,-0.011010,0.014834,0.006203,0.999871,-0.001510,-0.000283,-0.005058,-0.000725,-0.000117,0.000927,131.604385,132.698929,25.000000,-25.890379,-19.930504,-109.344238
461771006.110108,0.011520,0.011459,-1.005569,0.011716,-0.010986,-0.358157,0.936435,-0.350645,-0.011715,0.350527,0.936488,-0.010986,0.014823,0.006181,0.999871,-0.000194,0.000473,-0.005698,0.000510,-0.000142,-0.002723,131.594849,132.689392,25.000000,-25.649193,-19.758820,-109.377411
461771006.143431,0.011993,0.010880,-1.004211,0.011702,-0.011001,-0.358219,0.936414,-0.350703,-0.011701,0.350586,0.936466,-0.011001,0.014816,0.006199,0.999871,0.000292,0.000535,-0.005225,-0.000741,-0.000143,-0.003952,131.585648,132.680191,25.000000,-26.131565,-19.758820,-109.576408
461771006.176776,0.010941,0.010422,-1.005127,0.011701,-0.010990,-0.358202,0.936419,-0.350688,-0.011700,0.350570,0.936472,-0.010990,0.014810,0.006190,0.999871,0.000858,0.000149,-0.001411,0.001769,-0.000128,0.000947,131.578262,132.672806,25.000000,-25.683647,-19.930511,-109.476906
461771006.209441,0.013138,0.012619,-1.002670,0.011746,-0.011014,-0.358160,0.936434,-0.350648,-0.011745,0.350530,0.936487,-0.011014,0.014861,0.006197,0.999870,-0.000469,0.000446,-0.004250,-0.003196,-0.000092,0.002065,131.561462,132.656006,25.000000,-26.303841,-19.724487,-109.609566
461771006.243439,0.011505,0.009476,-1.003693,0.011774,-0.011038,-0.358145,0.936438,-0.350635,-0.011773,0.350516,0.936492,-0.011037,0.014896,0.006209,0.999870,0.000922,-0.000738,-0.002816,0.000541,-0.000115,0.000874,131.547943,132.642487,25.000000,-26.372753,-19.999191,-110.073891
461771006.276782,0.011353,0.011337,-1.005341,0.011775,-0.010976,-0.358162,0.936433,-0.350650,-0.011774,0.350532,0.936486,-0.010976,0.014875,0.006151,0.999870,0.000219,-0.000524,-0.002815,0.000544,-0.002575,-0.000321,131.543503,132.638046,25.000000,-26.234928,-20.136543,-109.941223
461771006.310123,0.010315,0.009918,-1.004562,0.011763,-0.010971,-0.358155,0.936435,-0.350643,-0.011762,0.350525,0.936489,-0.010971,0.014862,0.006150,0.999871,-0.001783,-0.000976,-0.004371,-0.000712,0.001112,-0.000367,131.548325,132.642868,25.000000,-25.855919,-20.582932,-109.642731
461771006.343387,0.009201,0.010757,-1.003860,0.011784,-0.011018,-0.358173,0.936428,-0.350661,-0.011783,0.350542,0.936482,-0.011018,0.014898,0.006187,0.999870,0.000134,0.000426,-0.006020,-0.000716,0.002339,-0.000379,131.544678,132.639221,25.000000,-25.924828,-19.964851,-109.045746
461771006.376835,0.011139,0.009140,-1.004379,0.011744,-0.011069,-0.358210,0.936416,-0.350696,-0.011743,0.350577,0.936468,-0.011069,0.014879,0.006248,0.999870,-0.000940,0.000711,-0.004387,-0.000707,-0.001343,-0.000342,131.538803,132.633347,25.000000,-26.062651,-19.896179,-109.112076
461771006.410110,0.012589,0.009460,-1.006042,0.011622,-0.011105,-0.358322,0.936378,-0.350800,-0.011622,0.350681,0.936429,-0.011105,0.014778,0.006323,0.999871,-0.001368,-0.000775,-0.003883,-0.003184,-0.000098,-0.000433,131.524719,132.619263,25.000000,-26.028196,-19.724487,-109.543243
461771006.443438,0.011887,0.010468,-1.004913,0.011619,-0.011145,-0.358367,0.936362,-0.350843,-0.011618,0.350724,0.936413,-0.011145,0.014789,0.006361,0.999870,0.000528,0.000223,-0.003364,-0.000693,0.001118,-0.000426,131.520142,132.614685,25.000000,-25.752556,-19.930511,-109.609573
461771006.476817,0.013107,0.010544,-1.003403,0.011649,-0.011146,-0.358413,0.936346,-0.350887,-0.011648,0.350767,0.936396,-0.011146,0.014818,0.006351,0.999870,-0.000250,-0.001243,-0.004494,-0.001946,-0.001351,-0.004071,131.519699,132.614243,25.000000,-25.408003,-19.724487,-109.808571
461771006.510152,0.011185,0.010391,-1.004715,0.011607,-0.011146,-0.358426,0.936342,-0.350898,-0.011606,0.350779,0.936392,-0.011145,0.014779,0.006365,0.999871,-0.000543,-0.000830,-0.001320,-0.001944,0.001117,-0.001655,131.529358,132.623901,25.000000,-25.201271,-19.999191,-109.609573
461771006.543492,0.012970,0.010193,-1.007111,0.011631,-0.011138,-0.358512,0.936311,-0.350979,-0.011630,0.350859,0.936362,-0.011138,0.014800,0.006348,0.999870,0.000790,-0.001037,-0.004143,-0.004431,0.001142,0.000766,131.543228,132.637772,25.000000,-25.304638,-20.239563,-109.642738
461771006.576747,0.010590,0.010941,-1.003647,0.011664,-0.011152,-0.358460,0.936329,-0.350931,-0.011663,0.350811,0.936380,-0.011152,0.014834,0.006351,0.999870,-0.000310,-0.000990,-0.004265,-0.001918,-0.000097,-0.000479,131.545563,132.640106,25.000000,-25.787010,-20.239563,-109.576408
461771006.610317,0.013855,0.010666,-1.005463,0.011618,-0.011215,-0.358404,0.936349,-0.350878,-0.011617,0.350758,0.936399,-0.011215,0.014813,0.006426,0.999870,-0.001027,-0.000274,-0.003777,-0.001913,0.001143,0.001950,131.536392,132.630936,25.000000,-26.269386,-20.033531,-109.311073
461771006.643426,0.011063,0.010315,-1.002411,0.011604,-0.011091,-0.358444,0.936336,-0.350915,-0.011603,0.350796,0.936386,-0.011090,0.014756,0.006314,0.999871,0.000208,0.000110,-0.003089,0.009283,-0.007577,-0.012518,131.530411,132.624954,25.000000,-26.200474,-20.170883,-109.311073
461771006.692838,0.013046,0.010925,-1.004883,0.011687,-0.011181,-0.358396,0.936351,-0.350871,-0.011686,0.350751,0.936402,-0.011181,0.014866,0.006371,0.999869,-0.000287,-0.000652,-0.004495,-0.000672,-0.000102,-0.000468,131.526779,132.621323,25.000000,-26.097109,-20.067871,-109.476906
461771006.710433,0.009872,0.010773,-1.003342,0.011740,-0.011207,-0.358462,0.936327,-0.350933,-0.011739,0.350812,0.936379,-0.011207,0.014925,0.006375,0.999868,0.001307,-0.000282,-0.005015,-0.001938,0.001105,-0.005369,131.522812,132.617355,25.000000,-26.234932,-20.136543,-109.609573
461771006.743375,0.012817,0.011368,-1.001358,0.011702,-0.011160,-0.358492,0.936317,-0.350961,-0.011701,0.350841,0.936369,-0.011160,0.014873,0.006344,0.999869,-0.001264,-0.001761,-0.005624,0.001832,0.002340,-0.001745,131.511475,132.606018,25.000000,-25.890383,-19.793159,-109.675903
461771006.776740,0.011841,0.012024,-1.003555,0.011717,-0.011163,-0.358508,0.936311,-0.350976,-0.011716,0.350856,0.936363,-0.011163,0.014888,0.006341,0.999869,0.001895,0.000037,-0.006387,0.000585,-0.001349,-0.004158,131.504044,132.598587,25.000000,-25.752562,-19.518456,-109.344246
461771006.810053,0.011841,0.008835,-1.004349,0.011714,-0.011172,-0.358472,0.936324,-0.350942,-0.011713,0.350821,0.936376,-0.011172,0.014889,0.006351,0.999869,-0.000635,-0.001055,-0.004098,-0.001884,-0.000064,0.004351,131.499069,132.593613,25.000000,-25.270185,-19.518456,-109.145256
461771006.843472,0.012894,0.011276,-1.005051,0.011667,-0.011133,-0.358475,0.936324,-0.350945,-0.011666,0.350825,0.936375,-0.011133,0.014830,0.006332,0.999870,-0.001824,0.000052,-0.003060,-0.000641,-0.000076,0.003141,131.478699,132.573242,25.000000,-25.890379,-19.312424,-109.344254
461771006.876833,0.012802,0.010223,-1.004288,0.011654,-0.011123,-0.358452,0.936332,-0.350923,-0.011653,0.350803,0.936383,-0.011123,0.014815,0.006327,0.999870,-0.000590,-0.001068,-0.006340,0.000597,-0.001329,-0.000497,131.446472,132.541016,25.000000,-26.303841,-19.175056,-109.609589
461771006.910104,0.010803,0.009277,-1.002274,0.011726,-0.011107,-0.358410,0.936346,-0.350883,-0.011725,0.350764,0.936398,-0.011107,0.014876,0.006287,0.999870,0.002496,-0.001036,-0.004586,-0.000630,0.001149,0.001865,131.428848,132.523392,25.000000,-26.269386,-19.140717,-109.841751
461771006.943495,0.010925,0.008987,-1.004257,0.011764,-0.011073,-0.358421,0.936342,-0.350893,-0.011763,0.350774,0.936395,-0.011073,0.014900,0.006242,0.999870,0.002001,-0.000056,-0.004235,0.000600,-0.003811,-0.006616,131.409485,132.504028,25.000000,-26.131565,-19.552765,-109.642754
461771006.976957,0.009979,0.009644,-1.003403,0.011766,-0.011031,-0.358511,0.936310,-0.350977,-0.011765,0.350859,0.936363,-0.011031,0.014888,0.006200,0.999870,-0.000275,-0.001250,-0.005440,-0.000625,-0.001304,0.001890,131.397766,132.492310,25.000000,-25.959288,-19.655785,-109.543251
461771007.010020,0.011459,0.011215,-1.006409,0.011741,-0.011021,-0.358476,0.936323,-0.350945,-0.011740,0.350827,0.936376,-0.011020,0.014861,0.006200,0.999870,0.000314,-0.000751,-0.005791,0.000620,-0.000083,0.001887,131.390915,132.485458,25.000000,-26.372749,-19.930489,-109.476921
461771007.043489,0.012177,0.010117,-1.005936,0.011724,-0.010973,-0.358455,0.936331,-0.350924,-0.011723,0.350807,0.936384,-0.010973,0.014828,0.006162,0.999871,-0.000263,0.000242,-0.006538,0.001863,-0.000095,0.000677,131.391251,132.485794,25.000000,-25.752552,-20.205200,-109.941246
461771007.076721,0.012405,0.010605,-1.003723,0.011702,-0.011030,-0.358456,0.936330,-0.350926,-0.011701,0.350807,0.936383,-0.011030,0.014828,0.006223,0.999871,0.000277,0.000842,-0.004814,0.000613,-0.000119,-0.005473,131.410599,132.505142,25.000000,-25.442457,-20.582916,-109.974411
461771007.110070,0.012497,0.009171,-1.006195,0.011711,-0.011024,-0.358449,0.936333,-0.350919,-0.011710,0.350801,0.936385,-0.011023,0.014833,0.006214,0.999871,-0.000266,-0.000098,-0.005027,-0.001862,-0.001308,-0.000599,131.419266,132.513809,25.000000,-25.166817,-20.102196,-109.974411
461771007.143481,0.010605,0.010971,-1.003479,0.011725,-0.010958,-0.358449,0.936333,-0.350918,-0.011724,0.350801,0.936386,-0.010958,0.014823,0.006147,0.999871,-0.001119,0.000013,-0.003608,-0.003107,0.001166,0.001807,131.417175,132.511719,25.000000,-25.855923,-19.758812,-109.576416
461771007.176781,0.012543,0.010437,-1.005188,0.011699,-0.010952,-0.358435,0.936338,-0.350905,-0.011698,0.350788,0.936391,-0.010952,0.014797,0.006151,0.999872,0.000021,-0.001309,-0.005042,-0.004355,-0.000062,0.000590,131.406250,132.500793,25.000000,-26.062654,-19.827484,-109.642754
461771007.210104,0.010818,0.011246,-1.003525,0.011745,-0.010880,-0.358395,0.936352,-0.350867,-0.011744,0.350751,0.936406,-0.010879,0.014814,0.006068,0.999872,0.000494,-0.001449,-0.005057,0.000627,0.002370,0.000604,131.405884,132.500427,25.000000,-26.062654,-20.170868,-109.443756
461771007.243454,0.011642,0.010712,-1.001907,0.011729,-0.010846,-0.358414,0.936345,-0.350885,-0.011728,0.350769,0.936399,-0.010846,0.014788,0.006042,0.999872,-0.000894,-0.000058,-0.004720,0.000636,-0.001311,0.000641,131.410477,132.505020,25.000000,-25.718102,-20.239548,-109.510086
461771007.276789,0.010803,0.012222,-1.003433,0.011707,-0.010844,-0.358418,0.936344,-0.350888,-0.011707,0.350773,0.936398,-0.010844,0.014767,0.006047,0.999873,-0.000232,-0.000087,-0.005682,0.000651,-0.001315,-0.000617,131.423889,132.518433,25.000000,-25.304638,-20.170868,-109.510086
461771007.310081,0.010910,0.009903,-1.002274,0.011727,-0.010943,-0.358428,0.936340,-0.350899,-0.011726,0.350782,0.936393,-0.010943,0.014820,0.006133,0.999871,-0.000130,-0.000659,-0.004157,-0.000590,-0.002530,0.000606,131.452805,132.547348,25.000000,-25.063450,-20.479919,-109.675919
461771007.344136,0.011948,0.012238,-1.004471,0.011704,-0.010873,-0.358370,0.936361,-0.350843,-0.011703,0.350727,0.936415,-0.010873,0.014773,0.006077,0.999872,-0.001525,-0.001107,-0.005071,-0.000598,0.001152,0.000570,131.467773,132.562317,25.000000,-24.891172,-20.376900,-109.775421
461771007.376730,0.011841,0.011246,-1.001892,0.011716,-0.010928,-0.358397,0.936351,-0.350870,-0.011715,0.350753,0.936404,-0.010928,0.014804,0.006123,0.999872,-0.000179,0.000760,-0.004538,-0.000614,0.002360,-0.003102,131.489365,132.583908,25.000000,-25.304638,-20.308228,-109.642754
461771007.409104,0.011581,0.011368,-1.005463,0.011702,-0.010936,-0.358405,0.936349,-0.350877,-0.011701,0.350760,0.936402,-0.010936,0.014794,0.006136,0.999872,0.000461,0.000249,-0.005133,-0.001840,-0.000063,0.001793,131.496582,132.591125,25.000000,-25.373549,-20.102196,-109.576416
461771007.442736,0.011765,0.009888,-1.005005,0.011741,-0.010970,-0.358354,0.936366,-0.350829,-0.011740,0.350712,0.936419,-0.010970,0.014842,0.006155,0.999871,0.000848,-0.000365,-0.003959,-0.000580,-0.000073,0.000554,131.500671,132.595215,25.000000,-25.373549,-20.033516,-109.311089
461771007.476715,0.012054,0.009476,-1.004547,0.011723,-0.010996,-0.358362,0.936363,-0.350837,-0.011723,0.350719,0.936416,-0.010996,0.014835,0.006185,0.999871,0.000042,-0.001108,-0.005134,-0.000593,0.003602,-0.000702,131.506790,132.601334,25.000000,-25.063450,-19.724472,-109.476921
461771007.510051,0.012863,0.009094,-1.002502,0.011714,-0.010991,-0.358409,0.936347,-0.350882,-0.011713,0.350764,0.936399,-0.010990,0.014824,0.006182,0.999871,-0.000940,0.000591,-0.004386,-0.003090,-0.000088,-0.004345,131.503189,132.597733,25.000000,-25.373549,-19.484100,-109.178421
461771007.543451,0.012329,0.010468,-1.001877,0.011671,-0.010945,-0.358385,0.936356,-0.350858,-0.011670,0.350741,0.936409,-0.010945,0.014768,0.006155,0.999872,-0.001599,-0.000401,-0.002875,0.001917,-0.001311,0.000586,131.498154,132.592697,25.000000,-25.545826,-19.518440,-109.344254
461771007.576801,0.011383,0.010727,-1.006546,0.011619,-0.010993,-0.358268,0.936397,-0.350749,-0.011618,0.350632,0.936449,-0.010993,0.014736,0.006220,0.999872,0.000711,-0.000526,-0.002005,0.000677,0.002403,0.005420,131.501404,132.595947,25.000000,-25.718102,-19.964844,-109.311089
461771007.610062,0.013657,0.011032,-1.006485,0.011641,-0.010964,-0.358251,0.936403,-0.350733,-0.011640,0.350616,0.936455,-0.010964,0.014746,0.006185,0.999872,0.001605,0.000328,-0.004858,0.003191,-0.000068,0.004217,131.515244,132.609787,25.000000,-25.545824,-20.411224,-109.410583
461771007.643503,0.010757,0.008926,-1.003143,0.011643,-0.011034,-0.358239,0.936407,-0.350722,-0.011642,0.350604,0.936459,-0.011033,0.014772,0.006250,0.999871,0.000870,-0.000596,-0.003577,-0.003056,0.001175,0.001717,131.522415,132.616959,25.000000,-25.718098,-20.514244,-109.709084
461771007.676807,0.011200,0.010773,-1.004959,0.011613,-0.010986,-0.358202,0.936421,-0.350687,-0.011612,0.350570,0.936472,-0.010986,0.014726,0.006217,0.999872,-0.000854,-0.002059,-0.003271,0.000690,0.001165,0.002966,131.540527,132.635071,25.000000,-25.614735,-20.823273,-109.609589
461771007.710111,0.012054,0.011627,-1.005173,0.011556,-0.011017,-0.358172,0.936432,-0.350659,-0.011555,0.350542,0.936482,-0.011016,0.014684,0.006265,0.999873,-0.000508,-0.000701,-0.006063,-0.001805,0.001176,0.002947,131.558228,132.652771,25.000000,-25.545824,-20.617256,-109.609589
461771007.743421,0.011993,0.010239,-1.007980,0.011582,-0.011015,-0.358173,0.936431,-0.350660,-0.011581,0.350543,0.936482,-0.011015,0.014708,0.006255,0.999872,-0.002090,-0.001661,-0.004873,-0.001827,0.003604,-0.001957,131.566818,132.661362,25.000000,-25.373549,-20.376900,-109.244751
461771007.776802,0.009689,0.009857,-1.004684,0.011548,-0.011044,-0.358215,0.936417,-0.350699,-0.011547,0.350582,0.936467,-0.011044,0.014686,0.006293,0.999872,-0.000256,-0.000179,-0.005422,-0.001792,0.001171,0.001704,131.577698,132.672241,25.000000,-25.373547,-20.033516,-109.244751
461771007.810057,0.012238,0.011612,-1.004501,0.011525,-0.010998,-0.358244,0.936407,-0.350726,-0.011524,0.350609,0.936457,-0.010998,0.014649,0.006258,0.999873,-0.000019,-0.000638,-0.005605,0.003192,-0.000092,-0.000685,131.594116,132.688660,25.000000,-25.649189,-20.514252,-109.377419
461771007.843405,0.012756,0.010666,-1.002075,0.011512,-0.011009,-0.358327,0.936378,-0.350803,-0.011511,0.350686,0.936428,-0.011009,0.014641,0.006272,0.999873,-0.000647,-0.001213,-0.007466,-0.001793,-0.000063,0.000497,131.597855,132.692398,25.000000,-25.821465,-20.411240,-109.543251
461771007.876826,0.011734,0.010941,-1.002762,0.011532,-0.011003,-0.358421,0.936345,-0.350891,-0.011532,0.350774,0.936395,-0.011003,0.014659,0.006257,0.999873,-0.000179,0.000029,-0.003102,-0.000547,-0.001302,-0.000701,131.606995,132.701538,25.000000,-25.890377,-20.548592,-109.675919
461771007.910139,0.010788,0.010773,-1.006210,0.011487,-0.010953,-0.358423,0.936345,-0.350893,-0.011486,0.350777,0.936395,-0.010953,0.014599,0.006227,0.999874,-0.001110,-0.001325,-0.002918,0.001939,0.002369,-0.000718,131.605835,132.700378,25.000000,-25.959286,-20.273895,-109.543251
461771007.943378,0.012177,0.010925,-1.005188,0.011478,-0.010903,-0.358387,0.936358,-0.350858,-0.011477,0.350744,0.936408,-0.010903,0.014573,0.006184,0.999875,-0.000033,-0.001412,-0.005924,0.000712,0.002382,0.000472,131.608704,132.703247,25.000000,-25.924831,-20.445580,-109.443756
461771007.976804,0.011230,0.010406,-1.004196,0.011553,-0.010841,-0.358424,0.936344,-0.350893,-0.011552,0.350778,0.936396,-0.010841,0.014621,0.006099,0.999875,-0.000245,-0.002342,-0.006702,-0.001799,0.001133,-0.005635,131.604446,132.698990,25.000000,-25.993742,-20.102203,-109.642754
461771008.010112,0.012543,0.008743,-1.003616,0.011519,-0.010873,-0.358408,0.936350,-0.350878,-0.011518,0.350763,0.936401,-0.010872,0.014600,0.006140,0.999875,-0.000165,0.000083,-0.002735,-0.000528,0.001168,0.001695,131.597977,132.692520,25.000000,-25.821468,-19.793159,-109.609589
461771008.043397,0.013687,0.011520,-1.003220,0.011498,-0.010883,-0.358418,0.936347,-0.350888,-0.011497,0.350773,0.936397,-0.010883,0.014585,0.006157,0.999875,-0.000145,-0.000095,-0.003299,-0.001773,-0.001287,0.000490,131.589050,132.683594,25.000000,-25.993742,-19.758820,-109.510086
461771008.076798,0.010986,0.010681,-1.004868,0.011473,-0.010838,-0.358414,0.936349,-0.350883,-0.011472,0.350769,0.936399,-0.010838,0.014545,0.006124,0.999875,-0.000486,-0.000157,-0.004992,-0.000534,-0.001306,-0.001940,131.587463,132.682007,25.000000,-25.993742,-20.170883,-109.311089
461771008.110106,0.013046,0.009781,-1.003265,0.011475,-0.010879,-0.358413,0.936349,-0.350882,-0.011474,0.350768,0.936399,-0.010879,0.014562,0.006162,0.999875,-0.000930,0.000519,-0.004474,-0.001764,-0.000066,-0.000760,131.588959,132.683502,25.000000,-25.683643,-20.136543,-109.410583
461771008.143465,0.010666,0.009460,-1.003265,0.011399,-0.010833,-0.358461,0.936334,-0.350926,-0.011398,0.350813,0.936383,-0.010833,0.014475,0.006145,0.999876,-0.000977,-0.000625,-0.007845,0.000716,-0.001330,-0.005608,131.595505,132.690048,25.000000,-25.097908,-20.102219,-109.377419
461771008.176786,0.013107,0.009995,-1.005371,0.011349,-0.010881,-0.358537,0.936307,-0.350998,-0.011348,0.350884,0.936356,-0.010881,0.014445,0.006206,0.999876,-0.001308,0.000533,-0.001695,-0.003011,0.001174,0.000439,131.600937,132.695480,25.000000,-25.028996,-19.896187,-109.377419
461771008.210115,0.013290,0.010757,-1.003494,0.011379,-0.010863,-0.358522,0.936312,-0.350984,-0.011378,0.350870,0.936361,-0.010863,0.014467,0.006179,0.999876,-0.001109,0.000475,-0.004244,-0.000510,-0.000057,0.001691,131.613617,132.708160,25.000000,-25.063454,-19.930527,-109.145264
461771008.243476,0.011688,0.010422,-1.003845,0.011435,-0.010878,-0.358547,0.936303,-0.351007,-0.011435,0.350893,0.936352,-0.010878,0.014525,0.006173,0.999875,0.001352,-0.001875,-0.006167,-0.004261,-0.001287,-0.001986,131.613052,132.707596,25.000000,-25.339092,-19.655823,-109.277924
461771008.276757,0.011032,0.010391,-1.003601,0.011410,-0.010861,-0.358563,0.936298,-0.351022,-0.011409,0.350908,0.936347,-0.010861,0.014495,0.006166,0.999876,-0.000453,0.000842,-0.003084,0.003248,0.001162,0.002912,131.606018,132.700562,25.000000,-25.511370,-19.415451,-109.377419
461771008.310113,0.013474,0.009705,-1.006775,0.011347,-0.010889,-0.358640,0.936271,-0.351094,-0.011346,0.350980,0.936320,-0.010889,0.014446,0.006213,0.999876,0.000282,-0.000513,-0.006197,0.000732,-0.001328,-0.005623,131.588028,132.682571,25.000000,-25.821465,-19.587143,-109.941238
461771008.343467,0.011963,0.011703,-1.005966,0.011349,-0.010848,-0.358748,0.936233,-0.351195,-0.011348,0.351082,0.936282,-0.010848,0.014435,0.006172,0.999877,0.000355,0.000230,-0.006379,-0.001748,-0.002523,-0.001969,131.588287,132.682831,25.000000,-25.718102,-20.170883,-110.040741
461771008.376789,0.013214,0.009415,-1.003571,0.011350,-0.010852,-0.358805,0.936213,-0.351249,-0.011349,0.351135,0.936262,-0.010852,0.014437,0.006175,0.999877,0.001209,-0.001651,-0.004228,-0.001772,0.002366,-0.005678,131.594788,132.689331,25.000000,-25.683647,-20.479927,-110.007568
461771008.410110,0.011230,0.009995,-1.001755,0.011391,-0.010890,-0.358875,0.936188,-0.351315,-0.011390,0.351201,0.936237,-0.010890,0.014489,0.006195,0.999876,0.000329,0.000401,-0.005541,0.000747,-0.001300,-0.000742,131.604614,132.699158,25.000000,-25.787016,-20.376915,-109.908073
461771008.443445,0.011734,0.011490,-1.005005,0.011410,-0.010862,-0.358874,0.936189,-0.351313,-0.011409,0.351199,0.936238,-0.010861,0.014497,0.006162,0.999876,-0.000163,0.000369,-0.003359,0.000756,-0.000053,0.002906,131.612946,132.707489,25.000000,-25.718105,-20.376915,-109.112091
461771008.476822,0.010406,0.008774,-1.004837,0.011416,-0.010884,-0.358931,0.936168,-0.351367,-0.011415,0.351253,0.936217,-0.010883,0.014511,0.006179,0.999876,0.000609,0.000545,-0.004534,0.003258,-0.000076,0.000471,131.609558,132.704102,25.000000,-25.855923,-20.102219,-108.913086
461771008.510158,0.013000,0.009735,-1.004211,0.011457,-0.010789,-0.358950,0.936161,-0.351384,-0.011456,0.351271,0.936212,-0.010789,0.014517,0.006076,0.999876,-0.001050,-0.002015,-0.004961,0.003266,-0.000062,0.002911,131.609772,132.704315,25.000000,-25.649189,-20.033539,-108.714088
461771008.543512,0.011993,0.008728,-1.004990,0.011458,-0.010719,-0.359020,0.936137,-0.351449,-0.011457,0.351337,0.936188,-0.010719,0.014493,0.006009,0.999877,-0.000257,-0.000618,-0.003511,0.000755,-0.001311,-0.003195,131.601761,132.696304,25.000000,-26.062654,-19.896187,-109.377411
461771008.576806,0.011261,0.010101,-1.006088,0.011486,-0.010704,-0.358999,0.936144,-0.351429,-0.011485,0.351317,0.936195,-0.010704,0.014514,0.005986,0.999877,-0.000362,-0.000114,-0.002275,-0.001751,-0.000086,-0.005666,131.594589,132.689133,25.000000,-26.028202,-19.999207,-109.211578
461771008.610157,0.011810,0.010132,-1.002365,0.011521,-0.010713,-0.359011,0.936139,-0.351440,-0.011520,0.351328,0.936191,-0.010712,0.014550,0.005981,0.999876,-0.000259,-0.000611,-0.006212,-0.000505,-0.001325,-0.006864,131.591980,132.686523,25.000000,-26.028202,-20.136559,-109.476906
461771008.643464,0.013199,0.009995,-1.002625,0.011529,-0.010635,-0.359003,0.936142,-0.351432,-0.011528,0.351321,0.936195,-0.010634,0.014530,0.005905,0.999877,0.000831,-0.001098,-0.005540,-0.000467,-0.000056,0.000431,131.593124,132.687668,25.000000,-25.890383,-20.479942,-109.476906
461771008.676822,0.010544,0.010025,-1.007721,0.011622,-0.010678,-0.358968,0.936153,-0.351401,-0.011621,0.351288,0.936206,-0.010678,0.014632,0.005914,0.999875,0.003958,0.000278,-0.004443,0.000788,-0.000047,0.002881,131.601410,132.695953,25.000000,-25.787016,-20.582954,-109.642738
461771008.710121,0.013275,0.010864,-1.003326,0.011568,-0.010611,-0.358935,0.936166,-0.351369,-0.011567,0.351257,0.936219,-0.010610,0.014557,0.005870,0.999877,-0.001023,-0.000585,-0.007844,0.000799,-0.004956,0.002930,131.608154,132.702698,25.000000,-25.718105,-20.582954,-109.377411
461771008.743468,0.013046,0.009308,-1.004395,0.011571,-0.010724,-0.358900,0.936177,-0.351337,-0.011570,0.351225,0.936230,-0.010724,0.014600,0.005976,0.999876,-0.001011,0.000125,-0.004534,-0.000468,-0.000055,0.000432,131.621170,132.715714,25.000000,-25.580280,-20.445618,-109.178413
461771008.776733,0.012192,0.010483,-1.003479,0.011596,-0.010686,-0.358951,0.936159,-0.351385,-0.011595,0.351273,0.936212,-0.010686,0.014610,0.005931,0.999876,-0.000853,0.000133,-0.004992,0.000775,-0.003761,-0.003182,131.629929,132.724472,25.000000,-25.476912,-20.067894,-109.211578
461771008.810091,0.011505,0.010361,-1.004547,0.011610,-0.010693,-0.358943,0.936162,-0.351378,-0.011610,0.351265,0.936215,-0.010692,0.014626,0.005932,0.999875,0.002230,-0.000133,-0.001879,-0.001689,-0.000027,0.004072,131.626740,132.721283,25.000000,-25.752556,-19.930542,-109.476906
461771008.843500,0.009781,0.011673,-1.004028,0.011580,-0.010691,-0.358884,0.936183,-0.351322,-0.011579,0.351209,0.936236,-0.010691,0.014597,0.005942,0.999876,-0.000471,0.000006,-0.004229,-0.001692,0.001201,0.004060,131.611374,132.705917,25.000000,-26.028196,-19.655830,-109.675903
461771008.876829,0.012772,0.009262,-1.006073,0.011538,-0.010728,-0.358916,0.936172,-0.351352,-0.011537,0.351239,0.936224,-0.010728,0.014571,0.005991,0.999876,-0.000643,0.000929,-0.005877,0.000796,-0.001285,0.000444,131.600754,132.695297,25.000000,-26.407207,-20.308250,-109.709068
461771008.910138,0.013901,0.009293,-1.005814,0.011601,-0.010693,-0.358908,0.936174,-0.351345,-0.011600,0.351232,0.936227,-0.010693,0.014617,0.005936,0.999876,0.001782,-0.001782,-0.003558,-0.002964,-0.000067,-0.004477,131.594711,132.689255,25.000000,-26.338295,-20.170898,-109.775391
461771008.943456,0.010834,0.010666,-1.002655,0.011653,-0.010697,-0.358901,0.936176,-0.351338,-0.011652,0.351225,0.936230,-0.010697,0.014667,0.005921,0.999875,0.002249,-0.001404,-0.005939,-0.000447,-0.001272,0.001655,131.577255,132.671799,25.000000,-26.407207,-19.827515,-109.709061
461771008.976803,0.012970,0.010483,-1.005539,0.011655,-0.010669,-0.358913,0.936172,-0.351349,-0.011654,0.351237,0.936226,-0.010669,0.014659,0.005895,0.999875,0.002186,-0.001331,-0.005038,-0.000453,-0.002537,-0.005661,131.554077,132.648621,25.000000,-26.166019,-19.655823,-109.742226
461771009.010088,0.010452,0.010315,-1.006973,0.011682,-0.010639,-0.358853,0.936193,-0.351293,-0.011681,0.351181,0.936247,-0.010639,0.014673,0.005858,0.999875,0.000038,-0.001010,-0.004153,0.000809,0.001180,0.001633,131.547623,132.642166,25.000000,-25.993742,-19.827515,-109.510063
461771009.043407,0.012253,0.009872,-1.003510,0.011689,-0.010603,-0.358755,0.936227,-0.351200,-0.011688,0.351089,0.936282,-0.010603,0.014667,0.005823,0.999875,0.000565,-0.000730,-0.003634,-0.000434,0.001192,0.002843,131.551956,132.646500,25.000000,-25.752556,-20.411255,-109.211563
