Timestamp,Accel_X,Accel_Y,Accel_Z,Roll,Pitch,Yaw,GravAcc_X,GravAcc_Y,GravAcc_Z,UserAcc_X,UserAcc_Y,UserAcc_Z,RotRate_X,RotRate_Y,RotRate_Z,MagHeading,TrueHeading,HeadingAccuracy,Lat,Long,LocAccuracy,Course,Speed,Altitude
462463448.472710,-0.068008,-0.404388,-0.785736,0.113618,0.297445,-2.271131,0.108395,-0.293079,-0.949924,-0.002606,0.187793,0.029590,0.263954,-0.305208,0.154790,259.579834,260.676544,-1.000000,28.710226,77.206876,5.000000,269.625519,5.050000,206.580078
462463448.505673,-0.019913,-0.410049,-0.861511,0.113618,0.297445,-2.271131,0.108395,-0.293079,-0.949924,-0.002606,0.187793,0.029590,0.263954,-0.305208,0.154790,259.579834,260.676544,-1.000000,28.710257,77.206732,5.000000,270.703125,0.000000,200.770264
462463448.539336,-0.058090,-0.410751,-0.940292,0.113618,0.297445,-2.271131,0.108395,-0.293079,-0.949924,-0.002606,0.187793,0.029590,0.263954,-0.305208,0.154790,259.579834,260.676544,-1.000000,28.710257,77.206732,5.000000,270.703125,0.000000,200.770264
462463448.572821,-0.107071,-0.377441,-1.033630,0.113618,0.297445,-2.271131,0.108395,-0.293079,-0.949924,-0.002606,0.187793,0.029590,0.263954,-0.305208,0.154790,259.579834,260.676544,-1.000000,28.710257,77.206732,5.000000,270.703125,0.000000,200.770264
462463448.605814,-0.032379,-0.399216,-1.109940,0.113618,0.297445,-2.271131,0.108395,-0.293079,-0.949924,-0.002606,0.187793,0.029590,0.263954,-0.305208,0.154790,259.579834,260.676544,-1.000000,28.710868,77.207756,575.653072,-1.000000,-1.000000,200.770264
462463448.639666,-0.183685,-0.343414,-1.151215,0.113618,0.297445,-2.271131,0.108395,-0.293079,-0.949924,-0.002606,0.187793,0.029590,0.263954,-0.305208,0.154790,259.579834,260.676544,-1.000000,28.711317,77.208510,575.653121,-1.000000,-1.000000,200.770264
462463448.672672,-0.366486,-0.237885,-1.235229,0.113618,0.297445,-2.271131,0.108395,-0.293079,-0.949924,-0.002606,0.187793,0.029590,0.263954,-0.305208,0.154790,259.579834,260.676544,-1.000000,28.711317,77.208510,575.653121,-1.000000,-1.000000,200.770264
462463448.706004,-0.170578,-0.182556,-1.335251,-0.086548,0.475684,0.022223,-0.076843,-0.457946,-0.885652,-0.175339,0.248199,-0.446150,0.370152,0.077181,0.194738,259.579834,260.676544,-1.000000,28.711317,77.208510,575.653121,-1.000000,-1.000000,200.770264
462463448.739434,-0.167114,-0.232422,-1.190170,-0.089765,0.487998,0.029442,-0.079180,-0.468859,-0.879717,-0.078306,0.269197,-0.389814,0.291554,-0.096232,0.061663,259.579834,260.676544,-1.000000,28.711317,77.208510,575.653121,-1.000000,-1.000000,200.770264
462463448.771956,-0.329712,-0.282486,-0.873550,-0.093094,0.487605,0.022809,-0.082126,-0.468511,-0.879632,-0.168072,0.201025,-0.134086,-0.214473,-0.221183,-0.315509,259.579834,260.676544,-1.000000,28.711317,77.208510,575.653121,-1.000000,-1.000000,200.770264
462463448.805982,-0.285477,-0.295090,-0.778412,-0.089135,0.483054,0.010871,-0.078832,-0.464486,-0.882065,-0.277202,0.177132,0.056214,-0.041687,0.117142,-0.244357,259.579834,260.676544,-1.000000,28.710256,77.206524,65.000000,-1.000000,-1.000000,201.005875
462463448.839347,-0.182449,-0.281982,-0.752792,-0.081124,0.491251,0.008305,-0.071452,-0.471729,-0.878843,-0.166982,0.183613,0.111098,0.419158,0.186380,0.006141,259.579834,260.676544,-1.000000,28.710256,77.206524,65.000000,-1.000000,-1.000000,201.005875
462463448.872634,-0.080811,-0.298599,-0.658905,-0.078635,0.502228,0.007963,-0.068853,-0.481379,-0.873804,-0.014627,0.185313,0.189005,-0.052323,0.065196,-0.102397,259.579834,260.676544,-1.000000,28.710256,77.206524,65.000000,-1.000000,-1.000000,201.005875
462463448.905978,-0.128952,-0.359375,-0.569824,-0.077640,0.502390,0.006971,-0.067978,-0.481521,-0.873794,-0.064179,0.137695,0.306869,0.107010,-0.048523,0.104919,259.579834,260.676544,-1.000000,28.710256,77.206524,65.000000,-1.000000,-1.000000,201.005875
462463448.939319,-0.092804,-0.364410,-0.633011,-0.085959,0.506629,0.016500,-0.075069,-0.485232,-0.871157,-0.017735,0.120822,0.238146,0.111534,-0.134711,0.281497,259.579834,260.676544,-1.000000,28.710256,77.206524,65.000000,-1.000000,-1.000000,201.005875
462463448.972623,-0.093063,-0.405014,-0.772171,-0.092951,0.505216,0.021647,-0.081221,-0.483996,-0.871293,0.021819,0.111712,0.127640,-0.102485,-0.176904,0.019196,259.579834,260.676544,-1.000000,28.710256,77.206524,65.000000,-1.000000,-1.000000,201.005875
462463449.006049,-0.237442,-0.443527,-0.889847,-0.098381,0.501024,0.014759,-0.086150,-0.480324,-0.872850,-0.084016,0.037133,0.053453,-0.178018,-0.297249,-0.281529,259.579834,260.676544,-1.000000,28.710256,77.206524,65.000000,-1.000000,-1.000000,201.005875
462463449.039307,-0.280334,-0.416702,-0.991791,-0.116013,0.489818,0.011393,-0.102142,-0.470466,-0.876487,-0.178192,0.053763,-0.115304,-0.233660,-0.016330,-0.273541,259.579834,260.676544,-1.000000,28.710256,77.206524,65.000000,-1.000000,-1.000000,201.005875
462463449.072652,-0.218887,-0.410034,-1.113312,-0.107143,0.484953,0.005034,-0.094607,-0.466167,-0.879624,-0.151166,0.058178,-0.210953,-0.105364,0.327804,-0.074684,293.989990,295.086700,25.000000,28.710256,77.206524,65.000000,-1.000000,-1.000000,201.005875
462463449.105272,-0.178329,-0.386230,-1.174805,-0.100222,0.484475,0.004185,-0.088540,-0.465744,-0.880479,-0.100363,0.059601,-0.248626,0.004283,0.430635,-0.030950,294.779114,295.875824,25.000000,28.710256,77.206524,65.000000,-1.000000,-1.000000,201.005875
462463449.139299,-0.164856,-0.414337,-1.169556,-0.080675,0.491398,0.004206,-0.071052,-0.471859,-0.878806,-0.103386,0.070782,-0.295327,0.200070,0.456835,-0.015074,294.301300,295.398010,25.000000,28.710256,77.206524,65.000000,-1.000000,-1.000000,201.005875
462463449.172744,-0.115921,-0.388840,-1.136551,-0.068280,0.496962,0.008933,-0.059974,-0.476757,-0.876987,-0.082146,0.077206,-0.269757,0.122671,0.345792,0.261168,293.974945,295.071655,25.000000,28.710256,77.206524,65.000000,-1.000000,-1.000000,201.005875
462463449.205954,0.113525,-0.403748,-1.138687,-0.084224,0.491020,0.024343,-0.074185,-0.471526,-0.878726,0.070828,0.058058,-0.256176,-0.363975,-0.741506,0.537910,292.846069,293.942780,25.000000,28.710256,77.206524,65.000000,-1.000000,-1.000000,201.005875
462463449.239309,-0.096222,-0.251495,-1.220001,-0.119138,0.477727,0.043201,-0.105549,-0.459762,-0.881747,0.202946,0.084990,-0.265134,-0.161014,-0.597576,0.544127,291.653412,292.750122,25.000000,28.710256,77.206524,65.000000,-1.000000,-1.000000,201.005875
462463449.272641,-0.173920,-0.244766,-1.285202,-0.131794,0.486963,0.069089,-0.116137,-0.467944,-0.876094,-0.029447,0.219393,-0.389928,0.722031,0.274939,0.816689,290.559753,291.656464,25.000000,28.710256,77.206524,65.000000,-1.000000,-1.000000,201.005875
462463449.305991,-0.041016,-0.207108,-1.164719,-0.143976,0.509755,0.107594,-0.125238,-0.487963,-0.863833,-0.018790,0.268481,-0.401334,0.761676,0.018904,0.933007,288.754517,289.851227,25.000000,28.710256,77.206524,65.000000,-1.000000,-1.000000,201.005875
462463449.339368,-0.058411,-0.234421,-0.880493,-0.162525,0.516148,0.137877,-0.140731,-0.493533,-0.858266,0.124099,0.276538,-0.243800,0.010312,-0.074788,0.682972,286.443359,287.540070,25.000000,28.710256,77.206524,65.000000,-1.000000,-1.000000,201.005875
462463449.372718,-0.102402,-0.227478,-0.797974,-0.168430,0.511476,0.160262,-0.146181,-0.489465,-0.859683,0.087771,0.255044,-0.020810,0.030312,0.321072,0.601099,285.658661,286.755371,25.000000,28.710256,77.206524,65.000000,-1.000000,-1.000000,201.005875
462463449.406057,-0.100677,-0.204269,-0.783890,-0.164983,0.515545,0.180043,-0.142889,-0.493009,-0.858210,0.029378,0.287671,0.055384,0.305097,0.389901,0.398768,284.386505,285.483215,25.000000,28.710256,77.206524,65.000000,-1.000000,-1.000000,201.005875
462463449.439244,-0.118607,-0.234726,-0.662842,-0.166321,0.527029,0.191480,-0.143091,-0.502968,-0.852378,0.031366,0.293785,0.097877,0.431397,-0.056110,0.183353,283.400940,284.497650,25.000000,28.710256,77.206524,65.000000,-1.000000,-1.000000,201.005875
462463449.472639,-0.070389,-0.263870,-0.628067,-0.178157,0.539246,0.201628,-0.152069,-0.513489,-0.844514,0.033462,0.278763,0.181672,0.380944,-0.260500,0.243565,283.281677,284.378387,25.000000,28.710256,77.206524,65.000000,-1.000000,-1.000000,201.005875
462463449.506121,-0.081635,-0.309708,-0.653534,-0.187411,0.545073,0.214884,-0.159317,-0.518481,-0.840117,0.108475,0.226840,0.210447,0.148245,0.177944,0.333801,281.599335,282.696045,25.000000,28.710256,77.206524,65.000000,-1.000000,-1.000000,201.005875
462463449.539284,-0.128311,-0.357681,-0.766769,-0.173601,0.544705,0.232227,-0.147733,-0.518166,-0.842425,0.014966,0.200997,0.138796,0.002788,0.538278,0.351059,280.882721,281.979431,25.000000,28.710256,77.206524,65.000000,-1.000000,-1.000000,201.005875
462463449.572631,-0.076172,-0.392853,-0.801117,-0.169209,0.546145,0.248048,-0.143906,-0.519397,-0.842329,0.035065,0.139880,0.053251,0.179500,0.256784,0.413777,279.479553,280.576263,25.000000,28.710256,77.206524,65.000000,-1.000000,-1.000000,201.005875
462463449.605965,-0.079285,-0.413559,-0.907455,-0.172334,0.546502,0.260981,-0.146506,-0.519702,-0.841692,0.095557,0.106387,-0.041273,-0.037544,0.048243,0.250712,279.413269,280.509979,25.000000,28.710256,77.206524,65.000000,-1.000000,-1.000000,201.005875
462463449.639319,-0.170319,-0.421692,-0.957123,-0.165724,0.526795,0.258075,-0.142601,-0.502765,-0.852580,0.007546,0.089435,-0.063009,-0.157450,-0.253951,0.008711,278.021973,279.118683,25.000000,28.710256,77.206524,65.000000,-1.000000,-1.000000,201.005875
462463449.672639,-0.173737,-0.433151,-1.026962,-0.172411,0.505037,0.253188,-0.150140,-0.483840,-0.862182,-0.020758,0.057631,-0.132783,-0.419525,-0.210701,-0.119174,277.620239,278.716949,25.000000,28.710256,77.206524,65.000000,-1.000000,-1.000000,201.005875
462463449.705969,-0.190933,-0.362381,-1.076508,-0.170789,0.493578,0.249982,-0.149674,-0.473780,-0.867831,-0.047347,0.073480,-0.180906,-0.333145,0.130221,0.048458,277.617828,278.714539,25.000000,28.710256,77.206524,65.000000,-1.000000,-1.000000,201.005875
462463449.739313,-0.084091,-0.377884,-1.139145,-0.171172,0.474596,0.244607,-0.151511,-0.456979,-0.876479,0.023948,0.096703,-0.264818,-0.864284,-0.196106,-0.145114,279.103973,280.200684,25.000000,28.710256,77.206524,65.000000,-1.000000,-1.000000,201.005875
462463449.772629,-0.216064,-0.245621,-1.114655,-0.170547,0.445683,0.226889,-0.153143,-0.431074,-0.889226,0.000753,0.130964,-0.229320,-0.855110,-0.207346,-0.397478,280.240936,281.337646,25.000000,28.710256,77.206524,65.000000,-1.000000,-1.000000,201.005875
462463449.805966,-0.219116,-0.172531,-1.229416,-0.170851,0.439186,0.218621,-0.153886,-0.425202,-0.891920,-0.104095,0.204240,-0.270982,0.263478,-0.108204,0.030994,280.653259,281.749969,25.000000,28.710256,77.206524,65.000000,-1.000000,-1.000000,201.005875
462463449.839405,-0.130814,-0.084106,-1.186646,-0.187967,0.454857,0.232912,-0.167863,-0.439334,-0.882501,-0.002959,0.280139,-0.363364,0.598818,-0.535774,0.442868,281.106903,282.203613,25.000000,28.710256,77.206524,65.000000,-1.000000,-1.000000,201.005875
462463449.872640,-0.157135,-0.093384,-1.046860,-0.226686,0.479209,0.260029,-0.199434,-0.461077,-0.864658,0.042299,0.367694,-0.182202,0.605358,-0.403083,0.251271,281.203125,282.299835,25.000000,28.710256,77.206524,65.000000,-1.000000,-1.000000,201.005875
462463449.905993,-0.218262,-0.144089,-0.868515,-0.237826,0.490917,0.273655,-0.207767,-0.471435,-0.857077,-0.010494,0.327346,-0.011438,0.302970,0.027304,0.381315,281.513611,282.610321,25.000000,28.710256,77.206524,65.000000,-1.000000,-1.000000,201.005875
462463449.939402,-0.064682,-0.177475,-0.705688,-0.246927,0.492761,0.300537,-0.215346,-0.473060,-0.854307,0.097823,0.304847,0.105482,0.249765,0.109186,0.947407,281.134552,282.231262,25.000000,28.710256,77.206524,65.000000,-1.000000,-1.000000,201.005875
462463449.972702,0.013992,-0.232574,-0.630997,-0.255550,0.493546,0.320953,-0.222611,-0.473752,-0.852059,0.195527,0.291760,0.183678,0.365167,0.045710,1.105085,279.647095,280.743805,25.000000,28.710256,77.206524,65.000000,-1.000000,-1.000000,201.005875
462463450.006078,-0.083130,-0.276505,-0.639099,-0.278220,0.495776,0.377948,-0.241577,-0.475714,-0.845776,0.213272,0.219992,0.206204,0.170722,0.182677,0.855789,278.288391,279.385101,25.000000,28.710256,77.206524,65.000000,-1.000000,-1.000000,201.005875
462463450.039431,-0.185379,-0.383179,-0.598648,-0.281604,0.489885,0.406541,-0.245213,-0.470524,-0.847630,0.059880,0.126042,0.251943,-0.029520,0.383237,0.785159,276.461304,277.558014,25.000000,28.710256,77.206524,65.000000,-1.000000,-1.000000,201.005875
462463450.072702,-0.165192,-0.481247,-0.673355,-0.286430,0.481717,0.433994,-0.250378,-0.463302,-0.850096,0.072186,0.031875,0.222883,-0.001352,0.070156,0.783614,274.229828,275.326538,25.000000,28.710256,77.206524,65.000000,-1.000000,-1.000000,201.005875
462463450.106050,-0.145264,-0.521240,-0.702606,-0.306711,0.480622,0.461985,-0.267719,-0.462331,-0.845327,0.114536,-0.041103,0.157704,0.361077,-0.376219,0.696889,273.434570,274.531281,25.000000,28.710256,77.206524,65.000000,-1.000000,-1.000000,201.005875
462463450.139442,-0.203415,-0.565308,-0.825760,-0.336839,0.489923,0.487418,-0.291628,-0.470558,-0.832783,0.140398,-0.089256,0.075551,0.528195,-0.691146,0.473159,272.326202,273.422913,25.000000,28.710256,77.206524,65.000000,-1.000000,-1.000000,201.005875
462463450.172811,-0.236420,-0.572006,-0.880676,-0.372612,0.502753,0.508175,-0.319002,-0.481840,-0.816130,0.077074,-0.089861,-0.044527,0.627926,-0.850599,0.347408,272.118835,273.215546,25.000000,28.710256,77.206524,65.000000,-1.000000,-1.000000,201.005875
462463450.205994,-0.231689,-0.555374,-0.933273,-0.413242,0.518986,0.532200,-0.348701,-0.496000,-0.795230,0.119591,-0.033251,-0.060391,0.839248,-0.845694,0.520997,271.862579,272.959290,25.000000,28.710256,77.206524,65.000000,-1.000000,-1.000000,201.005875
462463450.239418,-0.201797,-0.510742,-1.018921,-0.457017,0.540587,0.561132,-0.378351,-0.514639,-0.769413,0.136697,-0.021310,-0.201381,1.093976,-0.952279,0.541086,270.931824,272.028534,25.000000,28.710256,77.206524,65.000000,-1.000000,-1.000000,201.005875
462463450.272787,-0.277832,-0.419144,-0.895279,-0.512126,0.566336,0.606783,-0.413524,-0.536544,-0.735608,0.078532,0.070159,-0.296543,1.517675,-1.089413,0.725035,270.186462,271.283173,25.000000,28.710256,77.206524,65.000000,-1.000000,-1.000000,201.005875
462463450.306114,-0.215332,-0.406967,-0.886017,-0.597542,0.601324,0.669534,-0.463923,-0.565735,-0.681704,0.214884,0.154297,-0.170576,1.760185,-2.133882,0.909321,270.060272,271.156982,25.000000,28.710256,77.206524,65.000000,-1.000000,-1.000000,201.005875
462463450.339427,-0.175278,-0.297836,-0.641266,-0.737054,0.618718,0.735119,-0.547516,-0.579992,-0.603188,0.362533,0.181310,-0.192420,1.195333,-3.583679,1.036573,269.174225,270.270935,25.000000,28.710256,77.206524,65.000000,-1.000000,-1.000000,201.005875
462463450.372781,-0.333832,-0.150864,-0.424042,-0.905340,0.615147,0.810237,-0.642436,-0.577079,-0.504238,0.458583,0.336463,-0.058170,1.755196,-3.994949,1.473181,267.376892,268.473602,25.000000,28.710256,77.206524,65.000000,-1.000000,-1.000000,201.005875
462463450.406101,-0.348282,-0.172272,-0.582428,-1.081228,0.616425,0.918140,-0.720106,-0.578122,-0.383697,0.386274,0.427258,-0.040345,2.225677,-3.247075,1.726751,265.784271,266.880981,25.000000,28.710256,77.206524,65.000000,-1.000000,-1.000000,201.005875
462463450.439444,-0.171265,-0.228455,-0.444946,-1.222832,0.567957,0.986137,-0.792480,-0.537911,-0.287451,0.382094,0.405175,-0.203150,0.188058,-2.759499,2.126011,264.427734,265.524445,25.000000,28.710256,77.206524,65.000000,-1.000000,-1.000000,201.005875
462463450.472779,-0.909439,-0.230209,-0.336533,-1.275903,0.501402,1.001901,-0.839056,-0.480656,-0.254863,0.535666,0.292194,-0.067387,-0.244936,-0.734599,1.984182,261.591919,262.688629,25.000000,28.710256,77.206524,65.000000,-1.000000,-1.000000,201.005875
462463450.506203,-1.062988,-0.256393,-0.698547,-1.255348,0.462931,1.005926,-0.850598,-0.446572,-0.277589,-0.058841,0.216363,-0.058943,-0.568431,1.873678,0.667368,258.022675,259.119385,25.000000,28.710256,77.206524,65.000000,-1.000000,-1.000000,201.005875
462463450.539417,-1.023254,-0.494003,-0.624680,-1.086505,0.413229,0.941712,-0.810513,-0.401569,-0.426393,-0.472690,-0.096692,-0.277633,-1.573234,2.703877,0.616036,257.605957,258.702667,25.000000,28.710256,77.206524,65.000000,-1.000000,-1.000000,201.005875
462463450.572771,-0.738083,-0.253311,-0.760773,-1.018880,0.392180,0.940718,-0.786872,-0.382204,-0.484513,-0.049889,0.023592,-0.034439,0.541085,1.638780,0.373182,255.574554,256.671265,25.000000,28.710256,77.206524,65.000000,-1.000000,-1.000000,201.005875
462463450.606098,-0.770432,-0.375900,-0.939285,-1.001747,0.400993,0.968842,-0.775588,-0.390332,-0.496088,0.005157,0.014432,-0.443197,0.724977,0.625752,0.199237,253.963211,255.059921,25.000000,28.710256,77.206524,65.000000,-1.000000,-1.000000,201.005875
462463450.639440,-0.724319,-0.474045,-0.842285,-0.970363,0.403207,0.985885,-0.758925,-0.392370,-0.519691,0.013960,-0.140757,-0.376213,0.193652,1.459249,0.020947,253.253922,254.350632,25.000000,28.710256,77.206524,65.000000,-1.000000,-1.000000,201.005875
462463450.672717,-0.823166,-0.469070,-0.767960,-0.917665,0.413042,0.982875,-0.727397,-0.401397,-0.556573,-0.026295,-0.047577,-0.215095,0.134315,1.606540,-0.472646,251.455444,252.552155,25.000000,28.710256,77.206524,65.000000,-1.000000,-1.000000,201.005875
462463450.706100,-0.716339,-0.455490,-0.783493,-0.876221,0.432693,0.973755,-0.697517,-0.419317,-0.581071,-0.112252,-0.071558,-0.200423,0.187144,0.678170,-0.738631,251.392380,252.489090,25.000000,28.710256,77.206524,65.000000,-1.000000,-1.000000,201.005875
462463450.739009,-0.632065,-0.452393,-0.716736,-0.865197,0.453115,0.962316,-0.684406,-0.437768,-0.583050,0.032352,-0.041648,-0.157398,0.189578,-0.077890,-0.532222,251.799866,252.896576,25.000000,28.710256,77.206524,65.000000,-1.000000,-1.000000,201.005875
462463450.772798,-0.651489,-0.342941,-0.704376,-0.861920,0.465286,0.955973,-0.678397,-0.448678,-0.581778,0.033347,0.042810,-0.138346,0.001801,-0.116796,-0.396626,252.960037,254.056747,25.000000,28.710256,77.206524,65.000000,-1.000000,-1.000000,201.005875
462463450.806100,-0.711472,-0.355011,-0.600967,-0.871550,0.459966,0.935672,-0.685785,-0.443918,-0.576745,0.011667,0.104273,-0.114813,-0.397082,-1.659159,-0.241530,253.701477,254.798187,25.000000,28.710256,77.206524,65.000000,-1.000000,-1.000000,201.005875
462463450.839403,-0.757172,-0.348190,-0.512726,-0.943958,0.449012,0.925021,-0.729607,-0.434076,-0.528442,0.018136,0.079065,-0.072525,-0.389082,-2.752296,0.274522,254.579422,255.676132,25.000000,28.710256,77.206524,65.000000,-1.000000,-1.000000,201.005875
462463450.872793,-0.958069,-0.350723,-0.541946,-1.125955,0.422510,0.922429,-0.823300,-0.410051,-0.392474,-0.061359,0.063631,-0.139966,-0.107293,-4.176607,0.379948,256.084076,257.180786,25.000000,28.710256,77.206524,65.000000,-1.000000,-1.000000,201.005875
462463450.906101,-1.174225,-0.262665,-0.297180,-1.296445,0.411576,0.944452,-0.882216,-0.400055,-0.248298,-0.130907,0.054886,-0.069299,0.884466,-5.630655,0.569161,258.111115,259.207825,25.000000,28.710256,77.206524,65.000000,-1.000000,-1.000000,201.005875
462463450.939338,-1.237625,-0.262726,-0.358688,-1.481124,0.395209,0.989412,-0.919208,-0.385001,-0.082649,-0.318417,0.122275,-0.276039,1.334160,-4.488586,0.851585,259.665100,260.761810,25.000000,28.710256,77.206524,65.000000,-1.000000,-1.000000,201.005875
462463450.972814,-1.241959,-0.080124,0.031204,-1.616614,0.365931,1.043033,-0.932811,-0.357819,0.042769,-0.360676,0.228699,-0.133773,1.544355,-2.998928,0.987192,259.913635,261.010345,25.000000,28.710256,77.206524,65.000000,-1.000000,-1.000000,201.005875
462463451.005982,-0.886719,-0.033249,0.169266,-1.700322,0.334898,1.074515,-0.936533,-0.328672,0.121988,-0.099631,0.287367,0.040716,0.423251,-1.820913,0.708239,257.887268,258.983978,25.000000,28.710256,77.206524,65.000000,-1.000000,-1.000000,201.005875
462463451.039347,-0.856476,-0.058456,0.135956,-1.738346,0.323893,1.062563,-0.934728,-0.318260,0.158095,0.078252,0.259803,-0.022139,-0.752669,-0.859395,0.291942,256.654816,257.751526,25.000000,28.709882,77.206297,30.000000,160.312500,0.960000,212.814636
462463451.072644,-0.628021,-0.017456,0.056290,-1.733834,0.323152,1.029509,-0.935664,-0.317557,0.153914,0.241954,0.314536,-0.092605,-1.001789,0.260868,0.048289,257.453705,258.550415,25.000000,28.709882,77.206297,30.000000,160.312500,0.960000,212.814636
462463451.105978,-0.570938,0.036697,-0.062805,-1.698370,0.327348,0.995377,-0.939204,-0.321533,0.120472,0.378611,0.316604,-0.147526,-1.073666,1.312437,0.181226,259.119843,260.216553,25.000000,28.709882,77.206297,30.000000,160.312500,0.960000,212.814636
462463451.139290,-0.564285,0.055984,-0.116287,-1.643935,0.317641,0.962369,-0.947435,-0.312326,0.069418,0.374758,0.382089,-0.168188,-0.674656,0.761484,0.525274,260.269348,261.366058,25.000000,28.709882,77.206297,30.000000,160.312500,0.960000,212.814636
462463451.172628,-0.551468,-0.015732,-0.228760,-1.629952,0.278506,0.951284,-0.959785,-0.274920,0.056843,0.443138,0.292269,-0.297398,0.103447,0.196910,1.609253,260.408142,261.504852,25.000000,28.709882,77.206297,30.000000,160.312500,0.960000,212.814636
462463451.205974,-0.641235,0.078430,-0.170044,-1.629992,0.217142,0.966573,-0.974807,-0.215439,0.057772,0.386199,0.327591,-0.218142,0.798698,-0.146893,1.927880,257.590607,258.687317,25.000000,28.709882,77.206297,30.000000,160.312500,0.960000,212.814636
462463451.239407,-0.593826,0.079712,-0.147781,-1.653238,0.142737,0.989833,-0.986468,-0.142253,0.081511,0.375125,0.216319,-0.242995,0.820740,-0.702010,2.544815,251.384613,252.481323,25.000000,28.709877,77.206299,30.000000,159.960938,0.960000,212.939331
462463451.272643,-0.856262,0.323761,-0.083221,-1.658275,0.044893,0.995967,-0.995173,-0.044878,0.087280,0.289148,0.207643,-0.236510,0.301033,0.237291,3.320843,247.547241,248.643951,25.000000,28.709877,77.206299,30.000000,159.960938,0.960000,212.939331
462463451.305959,-0.996628,0.510666,-0.177094,-1.643848,-0.082823,0.984446,-0.993914,0.082728,0.072736,-0.033216,0.365316,-0.140440,-0.297277,0.743674,4.534914,241.206024,242.302734,25.000000,28.709877,77.206299,30.000000,159.960938,0.960000,212.939331
462463451.339313,-1.042374,0.793274,-0.295670,-1.612942,-0.250807,0.949859,-0.967852,0.248186,0.040815,-0.025754,0.300169,-0.221555,-1.161471,1.293974,5.705036,230.873947,231.970657,25.000000,28.709877,77.206299,30.000000,159.960938,0.960000,212.939331
462463451.372710,-1.251862,0.898102,-0.344284,-1.577603,-0.436008,0.898269,-0.906424,0.422324,0.006170,-0.135950,0.370950,-0.301840,-1.186702,1.895234,5.668351,225.462784,226.559494,25.000000,28.709877,77.206299,30.000000,159.960938,0.960000,212.939331
462463451.405990,-1.683060,1.139893,-0.587906,-1.512648,-0.622310,0.891330,-0.811161,0.582914,-0.047221,-0.560238,0.430849,-0.328084,0.390352,2.218586,5.734524,213.422913,214.519623,25.000000,28.709877,77.206299,30.000000,159.960938,0.960000,212.939331
462463451.439433,-1.321381,1.079376,-0.630264,-1.403421,-0.784778,0.963989,-0.697657,0.706668,-0.117873,-0.905675,0.419674,-0.533784,1.555316,1.483323,4.877213,200.230057,201.326767,25.000000,28.709877,77.206299,30.000000,159.960938,0.960000,212.939331
462463451.472616,-1.350235,1.061829,-0.538254,-1.272696,-0.915473,1.105508,-0.582538,0.792851,-0.178988,-0.738842,0.286525,-0.451276,2.074232,0.174790,4.354964,190.726746,191.823456,25.000000,28.709877,77.206299,30.000000,159.960938,0.960000,212.939331
462463451.505228,-1.321762,0.966431,-0.403183,-1.143186,-0.999945,1.289178,-0.491695,0.841441,-0.224081,-0.906941,0.209798,-0.257990,2.023683,-1.128385,3.219516,184.504929,185.601639,25.000000,28.709877,77.206299,30.000000,159.960938,0.960000,212.939331
462463451.538786,-0.944168,0.764572,-0.203568,-0.999735,-1.056642,1.508045,-0.413764,0.870709,-0.265829,-0.729822,-0.037152,0.002264,1.167633,-0.833565,0.993241,175.645523,176.742233,25.000000,28.709877,77.206299,30.000000,159.960938,0.960000,212.939331
462463451.572333,-1.000717,0.517731,-0.221207,-0.986213,-1.047373,1.560845,-0.416844,0.866113,-0.275842,-0.617412,-0.214334,0.050698,0.599141,-1.189283,-0.341051,169.455215,170.551926,25.000000,28.709877,77.206299,30.000000,159.960938,0.960000,212.939331
462463451.605699,-0.696060,0.481384,-0.105804,-1.039945,-1.013317,1.552894,-0.456239,0.848591,-0.267840,-0.251936,-0.375111,0.163028,0.409760,-1.527411,-1.287092,168.146042,169.242752,25.000000,28.709877,77.206299,30.000000,159.960938,0.960000,212.939331
462463451.639014,-0.508911,0.395340,-0.187241,-1.100143,-0.972061,1.526272,-0.502320,0.826049,-0.255574,-0.133575,-0.426513,0.082036,-0.018338,-0.923171,-1.336646,168.163635,169.260345,25.000000,28.709877,77.206299,30.000000,159.960938,0.960000,212.939331
462463451.671663,-0.382050,0.521790,-0.150665,-1.163951,-0.935519,1.484076,-0.544963,0.804907,-0.234817,0.119243,-0.375311,0.065261,-0.239340,-0.865930,-1.375506,169.324265,170.420975,25.000000,28.709877,77.206299,30.000000,159.960938,0.960000,212.939331
462463451.705661,-0.242111,0.556534,-0.196014,-1.206090,-0.895832,1.454076,-0.583771,0.780729,-0.222875,0.312683,-0.232115,0.014898,0.127727,-0.397689,-1.382293,170.614182,171.710892,25.000000,28.709877,77.206299,30.000000,159.960938,0.960000,212.939331
462463451.739061,-0.268082,0.675369,-0.237930,-1.206947,-0.846499,1.475061,-0.619231,0.748965,-0.235806,0.394835,-0.184039,0.047237,1.234906,-0.508256,-1.160444,173.298721,174.395432,25.000000,28.709877,77.206299,30.000000,159.960938,0.960000,212.939331
462463451.772384,-0.138916,0.721970,-0.445816,-1.193056,-0.801605,1.498643,-0.646518,0.718473,-0.256535,0.397708,-0.023496,-0.044414,0.678776,0.081253,-1.092486,174.873199,175.969910,25.000000,28.709877,77.206299,30.000000,159.960938,0.960000,212.939331
462463451.805748,-0.239944,0.882217,-0.077301,-1.191941,-0.766353,1.481466,-0.669357,0.693512,-0.266461,0.462814,0.141967,0.190229,-0.469003,0.649178,-1.197199,175.242889,176.339600,25.000000,28.709877,77.206299,30.000000,159.960938,0.960000,212.939331
462463451.839040,-0.410065,1.120026,-0.062622,-1.220460,-0.745104,1.400889,-0.690370,0.678049,-0.252268,0.436464,0.210745,0.209131,-2.233814,0.970280,-1.390791,179.003922,180.100632,25.000000,28.709877,77.206299,30.000000,159.960938,0.960000,212.939331
462463451.872357,-0.529556,1.268585,-0.054321,-1.316490,-0.714211,1.159317,-0.731309,0.655021,-0.190092,0.201752,0.613564,0.135771,-4.065871,1.497988,-1.785820,186.659042,187.755753,25.000000,28.709877,77.206299,30.000000,159.960938,0.960000,212.939331
462463451.905689,-0.835770,1.268723,-0.196121,-1.356136,-0.702248,1.064589,-0.745871,0.645935,-0.162614,0.090903,0.521301,0.084123,-4.162418,1.316066,-1.694462,196.319153,197.415863,15.000000,28.709877,77.206299,30.000000,159.960938,0.960000,212.939331
462463451.939080,-0.930649,1.319534,-0.442368,-1.459036,-0.700913,0.848468,-0.759486,0.644915,-0.085235,-0.288060,0.778333,-0.313843,-2.365422,0.313269,0.214210,204.059906,205.156616,15.000000,28.709877,77.206299,30.000000,159.960938,0.960000,212.939331
462463451.972481,-0.709076,1.192993,-0.420471,-1.490559,-0.714279,0.796709,-0.753135,0.655073,-0.060560,0.044059,0.537920,-0.359911,-0.415248,-0.115396,0.191906,212.021652,213.118362,15.000000,28.709877,77.206299,30.000000,159.960938,0.960000,212.939331
462463452.005699,-0.925095,0.884918,-0.361252,-1.478953,-0.705300,0.818204,-0.758208,0.648262,-0.069833,-0.050844,0.269264,-0.333122,0.911114,0.117411,-0.572556,213.170578,214.267288,15.000000,28.709877,77.206299,30.000000,159.960938,0.960000,212.939331
462463452.039202,-1.061401,0.794128,-0.075928,-1.461139,-0.691573,0.833462,-0.765618,0.637749,-0.084293,-0.233818,0.218482,-0.235943,0.691727,0.719360,-0.868158,213.458954,214.555664,15.000000,28.709877,77.206299,30.000000,159.960938,0.960000,212.939331
462463452.072526,-0.664032,0.653061,-0.062607,-1.396563,-0.651028,0.778840,-0.783418,0.606004,-0.137895,-0.098983,0.125243,0.176729,-1.981587,3.441091,-0.664383,216.463867,217.560577,15.000000,28.709877,77.206299,30.000000,159.960938,0.960000,212.939331
462463452.104808,-0.432495,0.555206,-0.111694,-1.316247,-0.672831,0.690458,-0.756860,0.623203,-0.196930,0.222955,-0.045902,0.076538,-2.179646,4.154987,0.676343,220.326065,221.422775,15.000000,28.709877,77.206299,30.000000,159.960938,0.960000,212.939331
462463452.139104,-0.244507,0.486023,-0.407776,-1.239090,-0.713945,0.652827,-0.714585,0.654820,-0.246127,0.418885,-0.150884,0.042300,-0.419010,2.268168,1.134391,226.858856,227.955566,15.000000,28.709877,77.206299,30.000000,159.960938,0.960000,212.939331
462463452.172360,-0.203232,0.307068,-0.352875,-1.178812,-0.744007,0.693887,-0.679955,0.677242,-0.281078,0.496621,-0.286876,-0.118825,1.116170,0.208252,1.171530,228.642822,229.739532,15.000000,28.710107,77.206317,30.000000,174.726562,0.600000,223.357544
462463452.205686,-0.216019,0.366760,-0.277725,-1.142667,-0.745526,0.772337,-0.668417,0.678358,-0.305038,0.471655,-0.354582,-0.019043,1.829787,-0.914492,0.448834,225.057022,226.153732,15.000000,28.710107,77.206317,30.000000,174.726562,0.600000,223.357544
462463452.239034,-0.264069,0.386826,-0.138702,-1.131923,-0.731336,0.845743,-0.673748,0.667864,-0.316261,0.390759,-0.315035,0.095145,1.499744,-1.296657,0.309816,222.973328,224.070038,15.000000,28.710107,77.206317,30.000000,174.726562,0.600000,223.357544
462463452.272360,-0.293152,0.490906,-0.080475,-1.147952,-0.725068,0.883813,-0.682534,0.663187,-0.307133,0.426095,-0.225244,0.179081,0.381709,-1.271669,0.138759,219.055954,220.152664,15.000000,28.710107,77.206317,30.000000,174.726562,0.600000,223.357544
462463452.305702,-0.349716,0.646194,-0.079605,-1.191419,-0.732560,0.884426,-0.690601,0.668775,-0.275336,0.357608,-0.097212,0.190482,-0.259659,-1.401553,0.318156,216.767075,217.863785,15.000000,28.710107,77.206317,30.000000,174.726562,0.600000,223.357544
462463452.339037,-0.410858,0.791183,-0.217697,-1.244059,-0.748277,0.879764,-0.694090,0.680377,-0.235216,0.327314,0.025250,0.069368,-0.266040,-1.649792,0.475525,215.487442,216.584152,15.000000,28.710107,77.206317,30.000000,174.726562,0.600000,223.357544
462463452.372387,-0.573593,0.879730,-0.253494,-1.312867,-0.759371,0.871047,-0.701278,0.688465,-0.185001,0.238707,0.168163,-0.064877,-0.205215,-2.253022,-0.042612,212.344070,213.440781,15.000000,28.710107,77.206317,30.000000,174.726562,0.600000,223.357544
462463452.405724,-0.841492,1.014069,-0.259903,-1.401481,-0.756464,0.885009,-0.716868,0.686354,-0.122550,0.143275,0.193376,-0.130945,0.811524,-3.470565,0.327439,208.813232,209.909943,15.000000,28.710107,77.206317,30.000000,174.726562,0.600000,223.357544
462463452.439052,-1.113571,1.034027,-0.245636,-1.468583,-0.776778,0.935797,-0.709453,0.700985,-0.072770,-0.337452,0.403965,-0.207443,0.858673,-2.873629,0.681761,205.522614,206.619324,15.000000,28.710107,77.206317,30.000000,174.726562,0.600000,223.357544
462463452.471742,-1.225830,1.019333,-0.215652,-1.540939,-0.773520,0.939175,-0.715137,0.698658,-0.021359,-0.429501,0.274380,-0.249958,-0.481126,-1.838764,-0.595421,200.280029,201.376740,15.000000,28.710107,77.206317,30.000000,174.726562,0.600000,223.357544
462463452.505980,-1.220673,0.991898,-0.147903,-1.589115,-0.757723,0.904664,-0.726281,0.687269,0.013306,-0.499549,0.332063,-0.228958,-0.851492,0.238906,-0.237085,200.879120,201.975830,15.000000,28.710107,77.206317,30.000000,174.726562,0.600000,223.357544
462463452.539085,-0.916611,1.055313,-0.085312,-1.542630,-0.762525,0.856099,-0.722807,0.690749,-0.020364,-0.300569,0.389893,-0.076316,-0.553151,1.879894,0.264917,201.980713,203.077423,15.000000,28.710107,77.206317,30.000000,174.726562,0.600000,223.357544
462463452.572488,-0.965851,1.010040,-0.066803,-1.517102,-0.772965,0.832140,-0.714812,0.698261,-0.038418,-0.212968,0.322644,-0.042087,-0.596681,0.801472,0.287531,204.529297,205.626007,15.000000,28.710107,77.206317,30.000000,174.726562,0.600000,223.357544
462463452.605925,-0.979980,1.027542,-0.014709,-1.529985,-0.781429,0.805426,-0.709317,0.704295,-0.028965,-0.270664,0.323247,0.014255,-0.539832,-0.242739,0.140986,206.220276,207.316986,15.000000,28.710107,77.206317,30.000000,174.726562,0.600000,223.357544
462463452.638778,-0.743149,0.829712,-0.087570,-1.560581,-0.776914,0.799395,-0.713043,0.701082,-0.007284,-0.083405,0.201078,-0.043146,0.295944,-1.077832,-0.393318,206.320221,207.416931,15.000000,28.710107,77.206317,30.000000,174.726562,0.600000,223.357544
462463452.672238,-0.607651,0.553513,-0.214401,-1.567046,-0.751788,0.840742,-0.730464,0.682946,-0.002739,0.062724,0.001975,-0.201103,1.303877,-0.998660,-1.014719,206.026413,207.123123,15.000000,28.710107,77.206317,30.000000,174.726562,0.600000,223.357544
462463452.705539,-0.560379,0.493088,-0.192749,-1.545069,-0.713814,0.901975,-0.755620,0.654721,-0.019444,0.175817,-0.146405,-0.192226,1.390395,-0.287017,-1.183483,205.649200,206.745911,15.000000,28.710107,77.206317,30.000000,174.726562,0.600000,223.357544
462463452.738910,-0.449112,0.474274,-0.040787,-1.519915,-0.672710,0.951611,-0.781124,0.623108,-0.039779,0.298183,-0.132797,-0.029389,1.136677,-0.219025,-1.303223,205.990326,207.087036,15.000000,28.710107,77.206317,30.000000,174.726562,0.600000,223.357544
462463452.772265,-0.325943,0.409515,-0.060043,-1.504937,-0.629144,0.989007,-0.806779,0.588453,-0.053211,0.448350,-0.188825,-0.017300,0.858572,-0.125353,-1.235519,206.627914,207.724625,15.000000,28.710107,77.206317,30.000000,174.726562,0.600000,223.357544
462463452.805565,-0.244659,0.508011,0.029709,-1.489575,-0.588581,1.004679,-0.828988,0.555181,-0.067480,0.508522,-0.131689,0.027548,0.221413,0.303180,-1.272720,206.828415,207.925125,15.000000,28.710107,77.206317,30.000000,174.726562,0.600000,223.357544
462463452.838945,-0.227676,0.556229,0.008713,-1.483796,-0.546648,1.000283,-0.851041,0.519827,-0.074228,0.606381,-0.011816,0.103937,-0.137754,0.298655,-1.275419,210.453735,211.550446,15.000000,28.710107,77.206317,30.000000,174.726562,0.600000,223.357544
462463452.872234,-0.220856,0.772797,-0.013641,-1.483982,-0.516235,0.961247,-0.866408,0.493609,-0.075406,0.643691,0.202451,0.061536,-1.028062,0.454557,0.014335,212.588211,213.684921,15.000000,28.710107,77.206317,30.000000,174.726562,0.600000,223.357544
462463452.905585,-0.221756,1.089096,-0.017227,-1.489401,-0.537638,0.919463,-0.856077,0.512108,-0.069835,0.651884,0.406547,0.077693,-1.244597,0.397649,0.873369,215.838333,216.935043,15.000000,28.710107,77.206317,30.000000,174.726562,0.600000,223.357544
462463452.938920,-0.245255,1.166473,-0.043320,-1.497439,-0.557283,0.898383,-0.846413,0.528882,-0.062202,0.624657,0.560214,0.044975,-1.171393,0.043557,1.264206,216.466095,217.562805,15.000000,28.710107,77.206317,30.000000,174.726562,0.600000,223.357544
462463452.972260,-0.577530,1.350693,-0.126648,-1.547645,-0.624372,0.825267,-0.811113,0.584588,-0.018781,0.310442,0.768974,-0.085314,-1.718324,-0.141540,1.299692,216.008820,217.105530,15.000000,28.710107,77.206317,30.000000,174.726562,0.600000,223.357544
462463453.005600,-0.856171,1.468643,-0.172073,-1.600682,-0.680603,0.743435,-0.776847,0.629261,0.023223,-0.000909,0.756435,-0.184814,-2.006290,-0.023750,2.178399,215.028229,216.124939,15.000000,28.710107,77.206317,30.000000,174.726562,0.600000,223.357544
462463453.038939,-0.900864,1.445099,-0.208618,-1.624776,-0.719528,0.703908,-0.751021,0.659030,0.040579,-0.105149,0.809614,-0.212653,-1.627195,0.105934,2.642396,214.807144,215.903854,15.000000,28.710107,77.206317,30.000000,174.726562,0.600000,223.357544
462463453.072318,-0.798615,1.214828,-0.293900,-1.643715,-0.854645,0.668745,-0.654742,0.754338,0.047828,-0.127469,0.497173,-0.335761,0.703872,0.280034,2.072862,212.555756,213.652466,15.000000,28.710107,77.206317,30.000000,174.726562,0.600000,223.357544
462463453.105591,-1.220657,0.940338,-0.174393,-1.591679,-0.893661,0.720853,-0.626426,0.779371,0.013083,-0.380181,0.275149,-0.259879,1.177640,0.477537,0.655621,205.757233,206.853943,15.000000,28.710107,77.206317,30.000000,174.726562,0.600000,223.357544
462463453.138919,-1.168243,0.859604,-0.029984,-1.535619,-0.905293,0.763666,-0.617073,0.786606,-0.021716,-0.607277,0.115524,-0.095716,0.431008,0.818696,0.259766,203.126801,204.223511,15.000000,28.710107,77.206317,30.000000,174.726562,0.600000,223.357544
462463453.172347,-0.844681,0.602890,0.075836,-1.521230,-0.908198,0.762853,-0.614412,0.788396,-0.030479,-0.478682,0.012873,0.081764,-0.286944,0.990544,0.120803,202.895233,203.991943,15.000000,28.710107,77.206317,30.000000,174.726562,0.600000,223.357544
462463453.205597,-0.511154,0.403671,0.016907,-1.532609,-0.897359,0.673650,-0.623222,0.781683,-0.023811,0.002677,-0.292562,0.083060,-1.307353,1.287491,-0.507289,204.949524,206.046234,15.000000,28.710124,77.206396,10.000000,278.789062,1.380000,195.739502
462463453.238975,-0.444366,0.357864,-0.054901,-1.533367,-0.878719,0.625867,-0.637691,0.769922,-0.023880,0.159389,-0.394693,-0.003952,-0.573840,0.970332,-0.670547,209.578278,210.674988,15.000000,28.710124,77.206396,10.000000,278.789062,1.380000,195.739502
462463453.272260,-0.328629,0.326294,-0.117813,-1.523383,-0.854355,0.615784,-0.655967,0.754147,-0.031125,0.280357,-0.418484,-0.063937,-0.038911,0.247856,-0.833723,211.706467,212.803177,15.000000,28.710124,77.206396,10.000000,278.789062,1.380000,195.739502
462463453.305648,-0.263077,0.434479,-0.066650,-1.535979,-0.826468,0.602499,-0.677067,0.735543,-0.023584,0.394841,-0.370675,-0.097999,-0.436932,-0.234005,-0.857584,214.128586,215.225296,15.000000,28.710124,77.206396,10.000000,278.789062,1.380000,195.739502
462463453.339115,-0.277725,0.487030,-0.043442,-1.566871,-0.802074,0.567777,-0.695212,0.718800,-0.002729,0.418219,-0.264973,-0.047686,-0.931789,-0.058853,-0.656926,217.633179,218.729889,15.000000,28.710124,77.206396,10.000000,278.789062,1.380000,195.739502
462463453.372313,-0.295364,0.725082,-0.020126,-1.603165,-0.796809,0.516889,-0.698626,0.715129,0.022621,0.412173,-0.115291,-0.047218,-0.979788,-0.022598,0.322030,219.444000,220.540710,15.000000,28.710124,77.206396,10.000000,278.789062,1.380000,195.739502
462463453.405710,-0.337326,0.842712,-0.056946,-1.626661,-0.821013,0.483212,-0.680417,0.731836,0.038051,0.339277,0.058569,-0.013957,-0.538935,0.057376,0.948038,220.131226,221.227936,15.000000,28.710124,77.206396,10.000000,278.789062,1.380000,195.739502
462463453.439089,-0.498215,0.881531,-0.015640,-1.645387,-0.846492,0.458630,-0.660772,0.748961,0.049379,0.247915,0.113161,-0.074266,-0.413352,-0.138489,0.693524,219.087143,220.183853,15.000000,28.710124,77.206396,10.000000,278.789062,1.380000,195.739502
462463453.472362,-0.754303,0.988342,-0.080612,-1.666857,-0.861576,0.436543,-0.648240,0.758870,0.062462,-0.017242,0.142253,-0.087578,-0.419492,-0.081246,0.384239,217.472061,218.568771,15.000000,28.710124,77.206396,10.000000,278.789062,1.380000,195.739502
462463453.505931,-0.997086,1.094971,-0.015427,-1.670239,-0.872835,0.429005,-0.639482,0.766154,0.063802,-0.167250,0.275518,-0.060476,0.411286,0.266833,0.315138,217.442841,218.539551,15.000000,28.710124,77.206396,10.000000,278.789062,1.380000,195.739502
462463453.538985,-1.229446,1.164795,0.032608,-1.653625,-0.867526,0.404710,-0.644498,0.762731,0.053506,-0.395052,0.324320,-0.237679,-0.560729,1.161937,0.041365,217.397690,218.494400,15.000000,28.710124,77.206396,10.000000,278.789062,1.380000,195.739502
462463453.572367,-1.056900,1.152374,-0.024323,-1.619639,-0.876087,0.386415,-0.639399,0.768240,0.031255,-0.480551,0.377451,-0.072514,-0.193918,1.483340,0.320352,220.416733,221.513443,15.000000,28.710124,77.206396,10.000000,278.789062,1.380000,195.739502
462463453.605691,-0.921066,0.972153,-0.062653,-1.574341,-0.868973,0.399176,-0.645607,0.763666,0.002288,-0.281471,0.298254,-0.036911,0.623521,0.761827,-0.778878,220.762451,221.859161,15.000000,28.710124,77.206396,10.000000,278.789062,1.380000,195.739502
462463453.639034,-1.147110,0.952881,-0.045914,-1.539564,-0.819582,0.439684,-0.682194,0.730861,-0.021314,-0.327160,0.176015,-0.040607,0.869377,-0.301891,-1.866866,221.590393,222.687103,15.000000,28.710124,77.206396,10.000000,278.789062,1.380000,195.739502
462463453.672394,-1.155060,1.025909,-0.032516,-1.544524,-0.757153,0.466511,-0.726543,0.686855,-0.019093,-0.453922,0.314884,-0.010647,0.524158,-1.012450,-1.925865,223.528900,224.625610,15.000000,28.710124,77.206396,10.000000,278.789062,1.380000,195.739502
462463453.704953,-0.789093,0.824219,-0.137375,-1.564534,-0.693329,0.492381,-0.769108,0.639101,-0.004817,-0.204357,0.310865,-0.061818,0.799979,-1.181245,-2.033179,225.389725,226.486435,15.000000,28.710124,77.206396,10.000000,278.789062,1.380000,195.739502
462463453.738897,-0.586060,0.643814,-0.198349,-1.566983,-0.624514,0.538082,-0.811242,0.584703,-0.003093,0.150735,0.126769,-0.172886,1.367200,-0.730402,-2.155339,228.066620,229.163330,15.000000,28.710124,77.206396,10.000000,278.789062,1.380000,195.739502
462463453.772333,-0.534546,0.596146,-0.185059,-1.545403,-0.556906,0.602039,-0.848621,0.528563,-0.021554,0.294391,0.088778,-0.166267,1.856769,-0.262890,-1.986671,230.047119,231.143829,15.000000,28.710124,77.206396,10.000000,278.789062,1.380000,195.739502
462463453.805663,-0.463730,0.540543,-0.115128,-1.516083,-0.494368,0.671038,-0.878951,0.474476,-0.048138,0.376602,0.089779,-0.108631,1.916899,-0.121027,-1.803400,230.059464,231.156174,15.000000,28.710124,77.206396,10.000000,278.789062,1.380000,195.739502
462463453.839026,-0.364914,0.513443,-0.045044,-1.492309,-0.434741,0.731773,-0.904187,0.421176,-0.071113,0.469540,0.107206,-0.024254,1.697806,-0.095953,-1.663801,230.616180,231.712891,15.000000,28.710124,77.206396,10.000000,278.789062,1.380000,195.739502
462463453.872341,-0.322189,0.501587,-0.023712,-1.470504,-0.358232,0.799873,-0.931812,0.350619,-0.093768,0.609623,0.150968,0.070056,1.255728,-0.154846,-1.129779,231.756348,232.853058,15.000000,28.710124,77.206396,10.000000,278.789062,1.380000,195.739502
462463453.905671,-0.329361,0.593185,-0.010086,-1.463669,-0.331256,0.835178,-0.940214,0.325231,-0.101109,0.615263,0.232905,0.094136,0.958758,-0.205032,-0.454432,231.169800,232.266510,15.000000,28.710124,77.206396,10.000000,278.789062,1.380000,195.739502
462463453.939058,-0.292892,0.676758,-0.013214,-1.468387,-0.327493,0.855628,-0.941891,0.321670,-0.096797,0.658627,0.330277,0.083568,0.344368,-0.399400,0.298008,230.829712,231.926422,15.000000,28.710124,77.206396,10.000000,278.789062,1.380000,195.739502
462463453.972391,-0.342010,0.744370,-0.012192,-1.483327,-0.352886,0.860204,-0.934792,0.345607,-0.081975,0.592781,0.398763,0.069783,-0.086247,-0.654224,1.143957,229.528824,230.625534,15.000000,28.710124,77.206396,10.000000,278.789062,1.380000,195.739502
462463454.005722,-0.572525,0.891800,-0.053635,-1.512819,-0.399577,0.859133,-0.919678,0.389029,-0.053380,0.414978,0.467935,0.018514,-0.152548,-1.051748,1.556122,226.529694,227.626404,15.000000,28.710124,77.206396,10.000000,278.789062,1.380000,195.739502
462463454.039121,-0.858124,0.917374,-0.090836,-1.553174,-0.444837,0.853536,-0.902541,0.430311,-0.015907,0.177611,0.483569,-0.060524,-0.296724,-1.145995,1.258272,223.718262,224.814972,15.000000,28.710124,77.206396,10.000000,278.789062,1.380000,195.739502
462463454.072550,-0.994537,0.910522,-0.116913,-1.588072,-0.489289,0.827934,-0.882535,0.469999,0.015248,-0.112002,0.440524,-0.132161,-1.090747,-0.362692,1.557946,221.007599,222.104309,15.000000,28.710124,77.206396,10.000000,278.789062,1.380000,195.739502
462463454.105735,-1.055923,0.965790,-0.068695,-1.611576,-0.537816,0.767978,-0.858115,0.512262,0.035013,-0.209542,0.454855,-0.122827,-1.777769,0.427479,1.406959,218.060364,219.157074,15.000000,28.710124,77.206396,10.000000,278.789062,1.380000,195.739502
462463454.139057,-1.022263,0.848541,-0.065964,-1.632162,-0.564032,0.710677,-0.843516,0.534598,0.051828,-0.165090,0.394983,-0.081278,-1.230666,0.244006,0.401564,217.605316,218.702026,15.000000,28.710124,77.206396,10.000000,278.789062,1.380000,195.739502
462463454.172248,-1.054733,0.779556,-0.149261,-1.637885,-0.563107,0.686179,-0.843699,0.533816,0.056688,-0.178564,0.314726,-0.122652,-1.348005,0.596254,-0.138436,219.427109,220.523819,15.000000,28.710124,77.206396,10.000000,278.789062,1.380000,195.739502
462463454.205689,-1.063049,0.775131,-0.067413,-1.617973,-0.546575,0.603830,-0.853359,0.519764,0.040288,-0.254551,0.226100,-0.124395,-1.315306,1.598994,-0.095716,224.780594,225.877304,15.000000,28.710142,77.206416,5.000000,284.414062,1.530000,196.650879
462463454.239079,-0.799164,0.668884,-0.126083,-1.584297,-0.548425,0.571289,-0.853269,0.521344,0.011520,-0.052417,0.245593,-0.078522,-0.517330,1.560196,0.202357,227.469086,228.565796,15.000000,28.710142,77.206416,5.000000,284.414062,1.530000,196.650879
462463454.272387,-0.629807,0.446884,-0.137238,-1.538139,-0.557173,0.564835,-0.848301,0.528789,-0.027713,0.095371,0.082662,-0.116101,0.015494,1.516397,0.264207,230.301727,231.398438,15.000000,28.710142,77.206416,5.000000,284.414062,1.530000,196.650879
462463454.305813,-0.563080,0.365417,-0.104050,-1.487507,-0.562955,0.574686,-0.842750,0.533687,-0.070355,0.212944,-0.086803,-0.066883,0.403630,1.277319,0.179274,231.547775,232.644485,15.000000,28.710142,77.206416,5.000000,284.414062,1.530000,196.650879
462463454.339271,-0.481018,0.304855,-0.044601,-1.445324,-0.568254,0.598190,-0.836216,0.538161,-0.105476,0.319325,-0.222152,0.036933,0.677136,0.673865,0.244719,231.665390,232.762100,15.000000,28.710142,77.206416,5.000000,284.414062,1.530000,196.650879
462463454.372465,-0.441437,0.329773,0.005859,-1.423245,-0.569384,0.618284,-0.833082,0.539113,-0.123822,0.358884,-0.227193,0.090085,0.327240,0.052937,-0.034815,231.141586,232.238297,15.000000,28.710142,77.206416,5.000000,284.414062,1.530000,196.650879
462463454.405739,-0.441147,0.345963,0.015961,-1.436503,-0.562222,0.620176,-0.838455,0.533067,-0.113280,0.397018,-0.203294,0.119140,-0.049862,-0.641406,-0.296744,230.726913,231.823624,15.000000,28.710142,77.206416,5.000000,284.414062,1.530000,196.650879
462463454.439832,-0.537262,0.505783,-0.020737,-1.450752,-0.556352,0.615312,-0.843076,0.528092,-0.101696,0.378140,-0.138627,0.100017,-0.139070,-0.032234,-0.061930,230.606232,231.702942,15.000000,28.710142,77.206416,5.000000,284.414062,1.530000,196.650879
462463454.472313,-0.572250,0.627563,-0.039719,-1.449249,-0.559592,0.600149,-0.841219,0.530840,-0.102754,0.284136,0.034589,0.075655,-0.687056,0.389550,0.087063,230.442154,231.538864,15.000000,28.710142,77.206416,5.000000,284.414062,1.530000,196.650879
462463454.505788,-0.612549,0.657852,-0.026230,-1.461649,-0.565251,0.563274,-0.839429,0.535628,-0.091987,0.267179,0.091935,0.052268,-1.044449,0.066792,0.016786,232.541321,233.638031,15.000000,28.710142,77.206416,5.000000,284.414062,1.530000,196.650879
462463454.538978,-0.961136,0.855667,-0.096634,-1.495253,-0.580000,0.514162,-0.834077,0.548024,-0.063129,-0.031081,0.247767,-0.004010,-0.953713,-0.208405,0.486274,234.456314,235.553024,15.000000,28.710142,77.206416,5.000000,284.414062,1.530000,196.650879
462463454.572341,-1.000183,0.866989,-0.185303,-1.531360,-0.590995,0.463931,-0.829741,0.557187,-0.032739,-0.170900,0.345980,-0.100073,-1.495000,-0.320214,0.014760,234.561844,235.658554,15.000000,28.710142,77.206416,5.000000,284.414062,1.530000,196.650879
462463454.605675,-1.201904,0.914871,-0.179199,-1.559116,-0.588605,0.416608,-0.831659,0.555202,-0.009715,-0.217795,0.294652,-0.178167,-0.862535,0.211077,0.070421,235.610016,236.706726,15.000000,28.710142,77.206416,5.000000,284.414062,1.530000,196.650879
462463454.639008,-1.381546,0.993927,-0.261002,-1.542931,-0.605549,0.412028,-0.821870,0.569214,-0.022908,-0.596053,0.433182,-0.215984,0.361761,0.672702,0.668113,236.949738,238.046448,15.000000,28.710142,77.206416,5.000000,284.414062,1.530000,196.650879
462463454.672342,-1.134628,0.768051,-0.251221,-1.519534,-0.612291,0.445810,-0.817258,0.574744,-0.041931,-0.397112,0.305703,-0.239151,1.173242,-0.375197,-0.200985,236.495544,237.592255,15.000000,28.710142,77.206416,5.000000,284.414062,1.530000,196.650879
462463454.705705,-1.216385,0.742783,-0.202103,-1.526338,-0.590413,0.497675,-0.829890,0.556704,-0.036920,-0.334996,0.179228,-0.190726,1.362518,-1.523023,-0.773799,234.897720,235.994431,15.000000,28.710142,77.206416,5.000000,284.414062,1.530000,196.650879
462463454.739033,-1.210526,0.770493,-0.121689,-1.551939,-0.565922,0.539705,-0.843945,0.536194,-0.015917,-0.466770,0.238266,-0.144545,0.932344,-1.401424,-0.662395,233.129059,234.225769,15.000000,28.710142,77.206416,5.000000,284.414062,1.530000,196.650879
462463454.772347,-0.857056,0.585953,-0.177856,-1.569278,-0.544100,0.569954,-0.855592,0.517648,-0.001299,-0.159346,0.169028,-0.132536,0.743623,-0.744174,-0.694787,232.622711,233.719421,15.000000,28.710142,77.206416,5.000000,284.414062,1.530000,196.650879
462463454.806806,-0.718124,0.488556,-0.193817,-1.564070,-0.521086,0.608090,-0.867260,0.497822,-0.005833,0.090328,0.032985,-0.178676,1.321138,-0.290383,-0.718075,231.517273,232.613983,15.000000,28.710142,77.206416,5.000000,284.414062,1.530000,196.650879
462463454.839311,-0.541061,0.358032,-0.237396,-1.536725,-0.494861,0.665878,-0.879524,0.474909,-0.029978,0.244423,-0.066416,-0.178305,1.740027,0.129225,-0.839837,231.155701,232.252411,15.000000,28.710142,77.206416,5.000000,284.414062,1.530000,196.650879
462463454.871989,-0.447479,0.357101,-0.137192,-1.504316,-0.463343,0.731423,-0.892587,0.446941,-0.059427,0.379816,-0.073772,-0.104086,1.807631,-0.126917,-0.944131,230.650070,231.746780,15.000000,28.710142,77.206416,5.000000,284.414062,1.530000,196.650879
462463454.905598,-0.363617,0.354019,-0.061096,-1.489715,-0.403046,0.813380,-0.916849,0.392222,-0.074502,0.529001,-0.052760,-0.034507,1.512736,-0.438252,-1.342232,229.739456,230.836166,15.000000,28.710142,77.206416,5.000000,284.414062,1.530000,196.650879
462463454.939062,-0.359756,0.388535,-0.027679,-1.488896,-0.378658,0.836233,-0.926047,0.369674,-0.076014,0.562430,-0.015655,0.014918,1.393001,-0.539991,-1.418995,227.473206,228.569916,15.000000,28.710142,77.206416,5.000000,284.414062,1.530000,196.650879
462463454.972522,-0.491776,0.516479,-0.040710,-1.513074,-0.314089,0.893431,-0.949494,0.308950,-0.054868,0.508225,0.162180,0.040495,0.919082,-1.079499,-1.051232,228.523865,229.620575,15.000000,28.710142,77.206416,5.000000,284.414062,1.530000,196.650879
462463455.005683,-0.546127,0.685669,-0.097397,-1.538569,-0.282013,0.906093,-0.959998,0.278290,-0.030949,0.422675,0.325638,-0.073879,0.001059,-0.810679,-0.903542,230.783203,231.879913,15.000000,28.710142,77.206416,5.000000,284.414062,1.530000,196.650879
462463455.039018,-0.627945,0.740631,-0.082550,-1.563197,-0.260323,0.887838,-0.966279,0.257393,-0.007344,0.406220,0.447014,-0.070369,-0.815549,-0.375324,-0.515171,231.850464,232.947174,15.000000,28.710142,77.206416,5.000000,284.414062,1.530000,196.650879
462463455.072292,-0.854660,0.976639,-0.051697,-1.577012,-0.257017,0.850402,-0.967134,0.254196,0.006011,0.155855,0.645416,-0.068175,-1.372825,-0.105505,0.113517,233.245895,234.342606,15.000000,28.710142,77.206416,5.000000,284.414062,1.530000,196.650879
462463455.105684,-0.973984,0.993469,-0.223526,-1.600405,-0.266452,0.785323,-0.964288,0.263310,0.028560,0.136774,0.714153,-0.182368,-2.479013,-0.035555,0.543577,236.348923,237.445633,15.000000,28.710142,77.206416,5.000000,284.414062,1.530000,196.650879
462463455.139075,-1.155136,0.997971,-0.145111,-1.616091,-0.302707,0.675413,-0.953554,0.298105,0.043221,-0.141661,0.697729,-0.267006,-3.686732,0.744519,1.705123,240.138519,241.235229,15.000000,28.710142,77.206416,5.000000,284.414062,1.530000,196.650879
462463455.171904,-1.001175,1.099686,-0.120956,-1.630475,-0.355859,0.547178,-0.935679,0.348396,0.055907,-0.213033,0.714959,-0.122328,-3.244929,0.800963,1.844580,243.988190,245.084900,15.000000,28.710142,77.206416,5.000000,284.414062,1.530000,196.650879
462463455.205551,-1.024384,0.730179,-0.375259,-1.629274,-0.399468,0.487555,-0.919693,0.388928,0.053843,0.033234,0.474399,-0.295542,-0.351454,0.903823,0.832304,244.786194,245.882904,15.000000,28.710160,77.206422,5.000000,284.414062,1.240000,195.395386
462463455.238876,-1.315689,0.745041,-0.384842,-1.598615,-0.427730,0.517975,-0.909558,0.414806,0.025309,-0.208225,0.277149,-0.435374,1.719177,-0.188627,0.937097,244.696228,245.792938,15.000000,28.710160,77.206422,5.000000,284.414062,1.240000,195.395386
462463455.272221,-1.096130,0.434250,-0.260132,-1.592824,-0.455454,0.584282,-0.897844,0.439870,0.019781,-0.423674,0.222117,-0.233129,1.593846,-0.711868,0.753469,239.954483,241.051193,15.000000,28.710160,77.206422,5.000000,284.414062,1.240000,195.395386
462463455.305560,-0.740494,0.287704,0.060684,-1.587665,-0.477825,0.615067,-0.887871,0.459849,0.014978,-0.143334,-0.000621,-0.157297,0.336997,0.104475,0.652767,238.550018,239.646729,15.000000,28.710160,77.206422,5.000000,284.414062,1.240000,195.395386
462463455.338894,-0.574661,0.197998,0.030563,-1.568826,-0.494800,0.605830,-0.880062,0.474856,-0.001734,0.230053,-0.242678,0.048334,-0.404764,1.114807,0.321043,235.431473,236.528183,15.000000,28.710160,77.206422,5.000000,284.414062,1.240000,195.395386
462463455.372329,-0.558456,0.178528,-0.009216,-1.531534,-0.487588,0.611892,-0.882785,0.468496,-0.034678,0.351031,-0.291189,0.080119,0.673425,0.833361,-0.431651,235.747803,236.844513,15.000000,28.710160,77.206422,5.000000,284.414062,1.240000,195.395386
462463455.405580,-0.306641,0.235794,-0.105576,-1.501662,-0.474640,0.645405,-0.887332,0.457019,-0.061443,0.286914,-0.281939,-0.003132,0.827552,0.194062,-0.287459,235.915100,237.011810,15.000000,28.710160,77.206422,5.000000,284.414062,1.240000,195.395386
462463455.438900,-0.413223,0.337204,-0.023560,-1.486808,-0.473219,0.663186,-0.886968,0.455754,-0.074670,0.580328,-0.219959,-0.030905,0.287872,0.260738,0.237245,235.782028,236.878738,15.000000,28.710160,77.206422,5.000000,284.414062,1.240000,195.395386
462463455.472280,-0.420197,0.422028,0.051819,-1.483821,-0.490152,0.669152,-0.878926,0.470760,-0.076638,0.494222,-0.098796,0.128976,0.089621,-0.208471,0.672296,234.280777,235.377487,15.000000,28.710160,77.206422,5.000000,284.414062,1.240000,195.395386
462463455.505854,-0.643921,0.507187,-0.009918,-1.499617,-0.513393,0.673679,-0.868877,0.491136,-0.061951,0.400860,-0.054292,0.058151,-0.131347,-0.751570,0.593058,232.999924,234.096634,15.000000,28.710160,77.206422,5.000000,284.414062,1.240000,195.395386
462463455.538922,-0.699005,0.498169,0.017761,-1.567030,-0.542759,0.656932,-0.856281,0.516501,-0.003225,0.157276,-0.018332,0.020986,-0.320734,-1.483876,0.501305,230.963928,232.060638,15.000000,28.710160,77.206422,5.000000,284.414062,1.240000,195.395386
462463455.572190,-0.964142,0.565811,-0.018478,-1.616170,-0.560058,0.643596,-0.846353,0.531235,0.038429,0.050668,0.026794,-0.076042,-0.428947,-1.003253,0.553031,228.452713,229.549423,15.000000,28.710160,77.206422,5.000000,284.414062,1.240000,195.395386
462463455.605497,-1.232437,0.662292,-0.005081,-1.642302,-0.568179,0.614361,-0.840728,0.538098,0.060219,-0.251893,0.038471,-0.119149,-1.009586,0.195641,0.051075,227.746384,228.843094,15.000000,28.710160,77.206422,5.000000,284.414062,1.240000,195.395386
462463455.638870,-1.267746,0.636139,-0.022934,-1.647918,-0.548541,0.556559,-0.850750,0.521443,0.065742,-0.422382,0.162289,-0.063056,-2.041349,1.117840,-0.927383,229.267151,230.363861,15.000000,28.710160,77.206422,5.000000,284.414062,1.240000,195.395386
462463455.672203,-1.360001,0.676819,0.042694,-1.615430,-0.508963,0.488244,-0.872380,0.487272,0.038963,-0.398890,0.119844,-0.048592,-1.654760,2.670833,-0.958203,235.471954,236.568665,15.000000,28.710160,77.206422,5.000000,284.414062,1.240000,195.395386
462463455.705537,-1.420197,0.832413,-0.217743,-1.540337,-0.486226,0.451286,-0.883692,0.467293,-0.026925,-0.635488,0.344978,0.058389,-0.524095,2.860173,-0.624566,243.401657,244.498367,15.000000,28.710160,77.206422,5.000000,284.414062,1.240000,195.395386
462463455.738882,-1.084961,0.576096,-0.163864,-1.476955,-0.456358,0.451129,-0.893714,0.440682,-0.084115,-0.409494,0.326469,-0.048454,0.508377,1.032263,-1.217016,246.112534,247.209244,15.000000,28.710160,77.206422,5.000000,284.414062,1.240000,195.395386
462463455.772239,-1.177872,0.573013,-0.157303,-1.483510,-0.405590,0.487483,-0.915371,0.394561,-0.080103,-0.184604,0.160233,-0.078833,1.634090,-1.821545,-1.494743,248.825989,249.922699,15.000000,28.710160,77.206422,5.000000,284.414062,1.240000,195.395386
462463455.805588,-1.413177,0.702713,-0.218643,-1.544702,-0.355325,0.551554,-0.937214,0.347895,-0.024462,-0.430126,0.324758,-0.172270,1.993377,-2.947386,-1.506399,248.683868,249.780579,15.000000,28.710160,77.206422,5.000000,284.414062,1.240000,195.395386
462463455.838889,-1.072418,0.489395,-0.151108,-1.615647,-0.299783,0.614205,-0.954440,0.295313,0.042836,-0.385541,0.367575,-0.245183,1.635556,-2.506215,-1.918580,247.747086,248.843796,15.000000,28.710160,77.206422,5.000000,284.414062,1.240000,195.395386
462463455.872210,-0.919693,0.382904,-0.119934,-1.656238,-0.201545,0.679038,-0.976184,0.200183,0.083611,0.056491,0.182721,-0.203545,0.773388,0.035741,-2.120082,247.412354,248.509064,15.000000,28.710160,77.206422,5.000000,284.414062,1.240000,195.395386
462463455.905532,-0.751526,0.341995,-0.037613,-1.629637,-0.138199,0.704954,-0.988752,0.137759,0.058247,0.183026,0.208111,-0.122181,0.608381,0.972594,-1.946453,248.193314,249.290024,15.000000,28.710160,77.206422,5.000000,284.414062,1.240000,195.395386
462463455.938907,-0.557938,0.298447,-0.056335,-1.593386,-0.077020,0.727890,-0.996781,0.076944,0.022521,0.388886,0.232825,-0.065063,0.654311,1.065667,-1.944589,250.048874,251.145584,15.000000,28.710160,77.206422,5.000000,284.414062,1.240000,195.395386
462463455.972224,-0.509476,0.297745,-0.068314,-1.561794,-0.015229,0.751617,-0.999844,0.015229,-0.009001,0.490368,0.282516,-0.059312,0.788517,0.818691,-1.888641,254.017273,255.113983,15.000000,28.710160,77.206422,5.000000,284.414062,1.240000,195.395386
462463456.005651,-0.424133,0.338074,-0.063049,-1.544671,0.044428,0.778596,-0.998672,-0.044413,-0.026097,0.543136,0.372813,-0.039241,0.919613,0.369492,-1.785560,257.137970,258.234680,15.000000,28.710160,77.206422,5.000000,284.414062,1.240000,195.395386
462463456.039074,-0.421204,0.432083,-0.051758,-1.537064,0.096179,0.809683,-0.994812,-0.096031,-0.033570,0.611374,0.460762,-0.030074,1.028637,0.310355,-1.288805,257.319733,258.416443,15.000000,28.710160,77.206422,5.000000,284.414062,1.240000,195.395386
462463456.072415,-0.474640,0.488617,-0.014587,-1.529180,0.118831,0.836826,-0.992088,-0.118552,-0.041311,0.517448,0.607169,0.026724,0.684406,0.266380,-0.190531,258.617676,259.714386,15.000000,28.710160,77.206422,5.000000,284.414062,1.240000,195.395386
462463456.105701,-0.484741,0.568832,0.058929,-1.534934,0.101365,0.844225,-0.994227,-0.101191,-0.035671,0.531337,0.659495,0.082851,-0.173832,-0.547621,1.055452,259.044495,260.141205,15.000000,28.710160,77.206422,5.000000,284.414062,1.240000,195.395386
462463456.139035,-0.613678,0.622711,0.058838,-1.566940,0.051551,0.827438,-0.998664,-0.051528,-0.003851,0.480033,0.629501,0.081182,-0.744877,-1.272863,1.714690,258.036499,259.133209,15.000000,28.710160,77.206422,5.000000,284.414062,1.240000,195.395386
462463456.172710,-0.832520,0.658981,0.013931,-1.614950,0.000233,0.793143,-0.999025,-0.000233,0.044139,0.277620,0.639470,-0.005916,-1.275977,-1.554772,1.564597,256.195892,257.292603,15.000000,28.710160,77.206422,5.000000,284.414062,1.240000,195.395386
462463456.205582,-1.343903,0.797272,-0.080307,-1.649166,-0.053824,0.734198,-0.995487,0.053798,0.078176,-0.238308,0.696369,-0.142934,-2.010205,-0.457674,2.069007,254.846725,255.943436,15.000000,28.710173,77.206419,5.000000,284.414062,1.640000,194.814209
462463456.239046,-1.378067,0.842606,-0.083984,-1.643738,-0.128203,0.661204,-0.989156,0.127852,0.072279,-0.450495,0.708147,-0.154050,-1.939988,0.746751,2.667557,254.113922,255.210632,15.000000,28.710173,77.206419,5.000000,284.414062,1.640000,194.814209
462463456.272358,-1.336044,0.665009,-0.189011,-1.633298,-0.214573,0.614659,-0.975160,0.212930,0.061028,-0.324035,0.576331,-0.162820,-0.610802,0.359227,2.697438,253.388458,254.485168,15.000000,28.710173,77.206419,5.000000,284.414062,1.640000,194.814209
462463456.305731,-1.446808,0.576645,-0.211288,-1.629167,-0.285006,0.616455,-0.958026,0.281163,0.055984,-0.378019,0.383845,-0.244994,0.599694,-0.107442,1.846338,248.813705,249.910416,15.000000,28.710173,77.206419,5.000000,284.414062,1.640000,194.814209
462463456.339108,-1.476837,0.407715,-0.036423,-1.633060,-0.333607,0.641132,-0.943036,0.327454,0.058793,-0.613986,0.217209,-0.181047,0.890128,-0.464688,1.167681,245.870621,246.967331,15.000000,28.710173,77.206419,5.000000,284.414062,1.640000,194.814209
462463456.372472,-1.069214,0.228409,0.018921,-1.636617,-0.358026,0.664995,-0.934562,0.350426,0.061602,-0.464409,0.030051,-0.074115,0.516471,-0.189997,0.371509,240.544022,241.640732,15.000000,28.710173,77.206419,5.000000,284.414062,1.640000,194.814209
462463456.405807,-0.884216,0.146469,0.054626,-1.628839,-0.352054,0.658002,-0.937086,0.344826,0.054452,-0.132128,-0.116418,-0.035531,-0.806839,0.692099,-0.551436,239.509979,240.606689,15.000000,28.710173,77.206419,5.000000,284.414062,1.640000,194.814209
462463456.439085,-0.613541,0.106079,0.100784,-1.610689,-0.322348,0.608288,-0.947739,0.316795,0.037828,0.141724,-0.196617,0.051954,-1.897167,1.309566,-0.974631,244.196838,245.293549,15.000000,28.710173,77.206419,5.000000,284.414062,1.640000,194.814209
462463456.472473,-0.418198,0.180450,0.035736,-1.580888,-0.291880,0.536948,-0.957656,0.287753,0.009665,0.403380,-0.180362,0.078730,-2.140682,1.708082,-0.788918,251.949997,253.046707,15.000000,28.710173,77.206419,5.000000,284.414062,1.640000,194.814209
462463456.505776,-0.341995,0.255035,-0.064438,-1.549876,-0.272882,0.479331,-0.962787,0.269508,-0.020145,0.544590,-0.089058,0.055881,-1.282848,1.165943,-0.473172,258.801636,259.898346,15.000000,28.710173,77.206419,5.000000,284.414062,1.640000,194.814209
462463456.539146,-0.445587,0.340820,-0.156860,-1.538879,-0.267767,0.461268,-0.963873,0.264579,-0.030774,0.540594,0.054742,-0.113818,0.334592,-0.254134,0.386620,261.522339,262.619049,15.000000,28.710173,77.206419,5.000000,284.414062,1.640000,194.814209
462463456.572448,-0.579788,0.430145,-0.137436,-1.545358,-0.300839,0.480481,-0.954779,0.296322,-0.024293,0.451407,0.095982,-0.127898,0.516725,-0.448211,1.402571,261.407227,262.503937,15.000000,28.710173,77.206419,5.000000,284.414062,1.640000,194.814209
462463456.605797,-0.605286,0.449173,-0.076462,-1.563721,-0.348789,0.491557,-0.939764,0.341760,-0.006649,0.351324,0.096381,-0.101047,0.133611,-0.837834,1.426706,257.697266,258.793976,15.000000,28.710173,77.206419,5.000000,284.414062,1.640000,194.814209
462463456.639061,-0.872025,0.383850,-0.028717,-1.592380,-0.386773,0.489903,-0.925915,0.377202,0.019988,0.141156,0.019313,-0.050002,-0.105011,-0.742207,0.987159,254.508865,255.605576,15.000000,28.710173,77.206419,5.000000,284.414062,1.640000,194.814209
462463456.672435,-1.324387,0.510925,-0.053436,-1.598434,-0.408674,0.482650,-0.917298,0.397393,0.025358,-0.168960,0.011268,-0.062712,-0.353850,0.362887,0.438653,253.084030,254.180740,15.000000,28.710173,77.206419,5.000000,284.414062,1.640000,194.814209
462463456.705799,-1.373291,0.515442,-0.040329,-1.586775,-0.404603,0.446143,-0.919141,0.393654,0.014688,-0.444766,0.129600,-0.056726,-1.603087,0.987815,-0.547359,252.568085,253.664795,15.000000,28.710173,77.206419,5.000000,284.414062,1.640000,194.814209
462463456.739128,-1.506790,0.529907,-0.049637,-1.568096,-0.377195,0.378579,-0.929698,0.368314,-0.002510,-0.428334,0.118533,-0.051704,-1.845059,1.700525,-0.805196,258.185425,259.282135,15.000000,28.710173,77.206419,5.000000,284.414062,1.640000,194.814209
462463456.772456,-1.625412,0.703812,-0.100113,-1.515742,-0.375285,0.345840,-0.928993,0.366538,-0.051197,-0.761101,0.291055,0.034122,-0.210648,2.044634,0.410477,260.829468,261.926178,15.000000,28.710173,77.206419,5.000000,284.414062,1.640000,194.814209
462463456.805832,-1.305511,0.581741,-0.265656,-1.461163,-0.385067,0.367149,-0.921209,0.375621,-0.101402,-0.530222,0.267994,-0.065392,1.065556,0.788588,0.014276,262.922241,264.018951,15.000000,28.710173,77.206419,5.000000,284.414062,1.640000,194.814209
462463456.839130,-1.291336,0.442642,-0.105942,-1.461272,-0.352623,0.422108,-0.932847,0.345361,-0.102580,-0.300994,0.095969,-0.070271,2.212478,-1.841162,-1.239106,262.126221,263.222931,15.000000,28.710173,77.206419,5.000000,284.414062,1.640000,194.814209
462463456.872152,-1.333450,0.474548,-0.203186,-1.510779,-0.309057,0.489149,-0.950906,0.304160,-0.057140,-0.408485,0.150216,-0.039601,1.686648,-1.990793,-1.208692,261.536713,262.633423,15.000000,28.710173,77.206419,5.000000,284.414062,1.640000,194.814209
462463456.905728,-1.200974,0.501511,-0.038849,-1.542730,-0.241575,0.539931,-0.970580,0.239232,-0.027247,-0.230393,0.262279,-0.011601,0.772906,-0.340885,-1.424881,261.967041,263.063751,15.000000,28.710173,77.206419,5.000000,284.414062,1.640000,194.814209
462463456.939148,-0.803772,0.299149,-0.138901,-1.529712,-0.196092,0.561442,-0.980008,0.194838,-0.040285,0.176236,0.104311,-0.098615,0.674916,0.703538,-1.273772,263.229736,264.326447,15.000000,28.710173,77.206419,5.000000,284.414062,1.640000,194.814209
462463456.972473,-0.628601,0.310791,-0.106812,-1.496591,-0.158704,0.584955,-0.984716,0.158038,-0.073206,0.289128,0.150830,-0.055395,0.892340,0.896698,-1.005628,264.500793,265.597504,15.000000,28.710173,77.206419,5.000000,284.414062,1.640000,194.814209
462463457.005790,-0.494904,0.288055,-0.113907,-1.472646,-0.125425,0.622203,-0.987370,0.125097,-0.097223,0.452427,0.146418,-0.039008,1.528739,0.306349,-0.936320,265.974915,267.071625,15.000000,28.710173,77.206419,5.000000,284.414062,1.640000,194.814209
462463457.039151,-0.523117,0.304459,-0.113800,-1.472467,-0.085503,0.677101,-0.991534,0.085399,-0.097812,0.484591,0.212422,-0.013821,1.856659,-0.498946,-1.155155,264.808990,265.905701,15.000000,28.710173,77.206419,5.000000,284.414062,1.640000,194.814209
462463457.072456,-0.526306,0.338898,-0.032669,-1.496541,-0.042857,0.724136,-0.996329,0.042844,-0.074119,0.452414,0.279009,0.000876,1.247957,-0.996962,-1.165825,263.900269,264.996979,15.000000,28.710173,77.206419,5.000000,284.414062,1.640000,194.814209
462463457.105805,-0.521942,0.421387,0.016968,-1.524382,-0.008850,0.742884,-0.998884,0.008849,-0.046396,0.479734,0.358918,0.044306,0.215699,-0.740341,-0.874924,264.083923,265.180634,15.000000,28.710173,77.206419,5.000000,284.414062,1.640000,194.814209
462463457.138957,-0.547363,0.491837,0.006516,-1.533607,0.003037,0.740550,-0.999304,-0.003037,-0.037180,0.481711,0.391450,0.043711,-0.265655,-0.478135,-0.677470,265.105560,266.202271,15.000000,28.710173,77.206419,5.000000,284.414062,1.640000,194.814209
462463457.172433,-0.623001,0.600815,-0.049973,-1.542560,0.018291,0.698016,-0.999434,-0.018290,-0.028228,0.431716,0.566630,0.009444,-1.239459,-0.083203,0.043171,267.726318,268.823029,15.000000,28.710173,77.206419,5.000000,284.414062,1.640000,194.814209
462463457.205568,-0.779709,0.755127,-0.086792,-1.540819,0.001544,0.651984,-0.999550,-0.001544,-0.029973,0.300407,0.659885,-0.051768,-1.499119,-0.000668,0.782142,268.599243,269.695953,15.000000,28.710183,77.206411,5.000000,270.703125,1.830000,194.617676
462463457.238938,-0.859924,0.771454,-0.147964,-1.550122,-0.032176,0.603861,-0.999269,0.032171,-0.020662,0.183961,0.740504,-0.083632,-1.568155,-0.419529,1.105436,269.790680,270.887390,15.000000,28.710183,77.206411,5.000000,270.703125,1.830000,194.617676
462463457.272273,-1.187805,0.827133,-0.209518,-1.567594,-0.072481,0.552800,-0.997369,0.072418,-0.003194,0.036432,0.684754,-0.195171,-1.529706,-0.495591,1.366355,271.188141,272.284851,15.000000,28.710183,77.206411,5.000000,270.703125,1.830000,194.617676
462463457.305605,-1.315826,0.790070,-0.234558,-1.578434,-0.129229,0.512113,-0.991633,0.128870,0.007574,-0.259649,0.678015,-0.226614,-0.897772,0.053766,2.031847,272.300964,273.397675,15.000000,28.710183,77.206411,5.000000,270.703125,1.830000,194.617676
462463457.339069,-1.170959,0.659256,-0.224060,-1.578247,-0.193904,0.499644,-0.981232,0.192691,0.007311,-0.259185,0.541058,-0.228914,-0.014135,0.082070,1.879715,270.581757,271.678467,15.000000,28.710183,77.206411,5.000000,270.703125,1.830000,194.617676
462463457.372292,-1.257477,0.480606,-0.161728,-1.569943,-0.241113,0.510218,-0.971073,0.238783,-0.000829,-0.214184,0.311693,-0.234721,0.507015,0.209589,1.168710,266.012604,267.109314,15.000000,28.710183,77.206411,5.000000,270.703125,1.830000,194.617676
462463457.405636,-1.430542,0.434723,-0.014832,-1.557571,-0.272572,0.527548,-0.962997,0.269210,-0.012736,-0.447235,0.202500,-0.069798,0.373372,0.391355,0.858430,264.324158,265.420868,15.000000,28.710183,77.206411,5.000000,270.703125,1.830000,194.617676
462463457.439004,-1.257889,0.357300,0.040466,-1.539697,-0.291810,0.522859,-0.957262,0.287686,-0.029780,-0.418181,0.118731,0.033976,-0.584324,0.700933,0.347814,261.655823,262.752533,15.000000,28.710183,77.206411,5.000000,270.703125,1.830000,194.617676
462463457.472325,-0.846329,0.166885,0.038910,-1.522397,-0.292537,0.484399,-0.956394,0.288383,-0.046325,-0.073757,-0.029624,0.111892,-1.456402,1.064842,-0.255412,262.706482,263.803192,15.000000,28.710183,77.206411,5.000000,270.703125,1.830000,194.617676
462463457.505649,-0.638443,0.147003,-0.013443,-1.490265,-0.279233,0.431671,-0.958152,0.275619,-0.077328,0.184058,-0.130721,0.109036,-1.440343,1.648042,-0.642969,264.646118,265.742828,15.000000,28.710183,77.206411,5.000000,270.703125,1.830000,194.617676
462463457.539027,-0.581940,0.172791,-0.036987,-1.448092,-0.262105,0.392286,-0.958585,0.259114,-0.118217,0.354672,-0.100377,0.100486,-0.893610,1.497309,-0.599468,269.899384,270.996094,15.000000,28.710183,77.206411,5.000000,270.703125,1.830000,194.617676
462463457.572321,-0.419464,0.219696,-0.066986,-1.420903,-0.251709,0.366722,-0.957629,0.249059,-0.144627,0.460803,-0.069402,0.083515,-0.642488,0.707641,-0.268812,273.279114,274.375824,15.000000,28.710183,77.206411,5.000000,270.703125,1.830000,194.617676
462463457.605654,-0.405258,0.300339,-0.046494,-1.419980,-0.255920,0.352589,-0.956449,0.253136,-0.145352,0.555891,-0.021706,0.082593,-0.222990,-0.275347,0.307843,275.194916,276.291626,15.000000,28.710183,77.206411,5.000000,270.703125,1.830000,194.617676
462463457.638934,-0.635910,0.423691,-0.092056,-1.436985,-0.275991,0.362714,-0.953555,0.272501,-0.128364,0.511553,0.046225,0.072150,0.505851,-0.768901,0.873446,275.257172,276.353882,15.000000,28.710183,77.206411,5.000000,270.703125,1.830000,194.617676
462463457.672297,-0.740967,0.432480,-0.086884,-1.459558,-0.307322,0.386998,-0.947256,0.302507,-0.105808,0.311346,0.121184,0.013751,0.528587,-1.015316,1.164002,272.299377,273.396088,15.000000,28.710183,77.206411,5.000000,270.703125,1.830000,194.617676
462463457.705605,-0.910339,0.460327,-0.034302,-1.494981,-0.361229,0.397808,-0.932776,0.353424,-0.070854,0.083304,0.091324,0.017616,-0.153141,-0.362810,0.978782,269.942017,271.038727,15.000000,28.710183,77.206411,5.000000,270.703125,1.830000,194.617676
462463457.738971,-1.198349,0.484024,-0.042526,-1.497091,-0.386974,0.390566,-0.923541,0.377388,-0.068194,-0.157224,0.110206,0.050402,-0.334127,0.279190,0.633054,268.154419,269.251129,15.000000,28.710183,77.206411,5.000000,270.703125,1.830000,194.617676
462463457.772391,-1.298370,0.536285,-0.059372,-1.485050,-0.404412,0.379395,-0.915956,0.393478,-0.078733,-0.333571,0.114029,0.016309,-0.375395,0.599906,0.448978,266.938599,268.035309,15.000000,28.710183,77.206411,5.000000,270.703125,1.830000,194.617676
462463457.805722,-1.311218,0.550507,-0.044876,-1.479863,-0.412370,0.361637,-0.912388,0.400782,-0.083196,-0.432186,0.176901,0.037740,-0.606309,0.127512,0.050531,266.840210,267.936920,15.000000,28.710183,77.206411,5.000000,270.703125,1.830000,194.617676
462463457.839060,-1.462097,0.603470,-0.053986,-1.479678,-0.419084,0.346693,-0.909673,0.406924,-0.083118,-0.461101,0.152433,0.041843,-0.254088,0.315312,0.347819,266.972687,268.069397,15.000000,28.710183,77.206411,5.000000,270.703125,1.830000,194.617676
462463457.872392,-1.402634,0.605774,-0.080551,-1.464232,-0.436611,0.354946,-0.901050,0.422871,-0.096385,-0.533719,0.181530,0.033885,0.483784,0.315806,0.599900,266.088043,267.184753,15.000000,28.710183,77.206411,5.000000,270.703125,1.830000,194.617676
462463457.905797,-1.118774,0.442337,-0.119934,-1.461319,-0.442262,0.385367,-0.898375,0.427985,-0.098747,-0.358980,0.125314,-0.026375,1.021784,-0.813153,-0.058195,263.686279,264.782990,15.000000,28.710183,77.206411,5.000000,270.703125,1.830000,194.617676
462463457.939008,-1.238571,0.416611,-0.111511,-1.493238,-0.427087,0.422404,-0.907440,0.414221,-0.070521,-0.214752,-0.007697,-0.051901,1.061562,-1.853795,-0.463552,262.782776,263.879486,15.000000,28.710183,77.206411,5.000000,270.703125,1.830000,194.617676
462463457.972588,-1.289719,0.464203,-0.140656,-1.533971,-0.411291,0.453035,-0.915984,0.399793,-0.033747,-0.361314,0.045443,-0.085424,0.756219,-1.416773,-0.469020,261.065308,262.162018,15.000000,28.710183,77.206411,5.000000,270.703125,1.830000,194.617676
462463458.006598,-1.013535,0.348343,-0.198441,-1.563997,-0.387689,0.470538,-0.925764,0.378050,-0.006294,-0.273577,0.070009,-0.137489,0.343150,-0.931624,-0.963802,259.601837,260.698547,15.000000,28.710183,77.206411,5.000000,270.703125,1.830000,194.617676
462463458.039042,-0.768768,0.224243,-0.229614,-1.575815,-0.320572,0.480584,-0.949043,0.315110,0.004763,0.141106,-0.076417,-0.230837,0.226168,0.189559,-1.602963,260.755432,261.852142,15.000000,28.710183,77.206411,5.000000,270.703125,1.830000,194.617676
462463458.072406,-0.694504,0.232147,-0.214569,-1.553322,-0.268541,0.500771,-0.964012,0.265325,-0.016847,0.269508,-0.033177,-0.197722,0.924554,0.688220,-1.624555,262.697845,263.794556,15.000000,28.710183,77.206411,5.000000,270.703125,1.830000,194.617676
462463458.105734,-0.609222,0.312119,-0.194153,-1.524750,-0.213444,0.540581,-0.976271,0.211827,-0.044985,0.353667,0.086864,-0.154798,1.390073,0.430414,-1.703830,266.012878,267.109589,15.000000,28.710183,77.206411,5.000000,270.703125,1.830000,194.617676
462463458.139014,-0.589630,0.344681,-0.086624,-1.516176,-0.158909,0.577035,-0.985928,0.158241,-0.053905,0.396740,0.176277,-0.063404,0.953310,-0.220582,-1.494496,266.939484,268.036194,15.000000,28.710183,77.206411,5.000000,270.703125,1.830000,194.617676
462463458.172351,-0.608475,0.414322,-0.051407,-1.528712,-0.121810,0.591171,-0.991711,0.121509,-0.041760,0.383237,0.292813,-0.009647,0.190606,-0.610020,-0.853488,269.208313,270.305023,15.000000,28.710183,77.206411,5.000000,270.703125,1.830000,194.617676
462463458.205532,-0.564774,0.465088,-0.075150,-1.559457,-0.103403,0.591709,-0.994595,0.103219,-0.011279,0.418438,0.357199,-0.041776,0.052708,-1.228994,-0.376223,269.373169,270.469879,15.000000,28.710183,77.206411,5.000000,270.703125,1.830000,194.617676
462463458.238935,-0.748093,0.539719,-0.260330,-1.601963,-0.094809,0.598886,-0.995026,0.094667,0.031022,0.396301,0.393675,-0.184357,0.281521,-1.307897,-0.252905,269.961731,271.058441,15.000000,28.710192,77.206405,5.000000,284.414062,1.280000,195.752625
462463458.271497,-0.905075,0.561829,-0.303253,-1.640182,-0.090657,0.607268,-0.993497,0.090533,0.069046,0.088422,0.471296,-0.372299,0.218319,-1.140610,-0.011048,269.799316,270.896027,15.000000,28.710192,77.206405,5.000000,284.414062,1.280000,195.752625
462463458.305623,-1.023270,0.622299,-0.283936,-1.657488,-0.091656,0.609717,-0.992063,0.091528,0.086219,0.039731,0.500742,-0.379448,0.104869,-1.068572,0.052028,269.573486,270.670197,15.000000,28.710192,77.206405,5.000000,284.414062,1.280000,195.752625
462463458.338985,-1.135605,0.638687,-0.248322,-1.701898,-0.094103,0.590960,-0.987032,0.093964,0.130148,-0.021284,0.492400,-0.409963,-0.750111,-0.443674,0.284494,270.022003,271.118713,15.000000,28.710192,77.206405,5.000000,284.414062,1.280000,195.752625
462463458.372295,-1.096085,0.651764,-0.192276,-1.702318,-0.106751,0.559841,-0.985720,0.106549,0.130396,-0.186613,0.555652,-0.360834,-0.906969,0.415404,0.605363,270.480011,271.576721,15.000000,28.710192,77.206405,5.000000,284.414062,1.280000,195.752625
462463458.405647,-0.957260,0.560181,-0.196548,-1.686786,-0.119634,0.533642,-0.986181,0.119349,0.114902,-0.035639,0.492910,-0.311909,-0.602633,0.657186,0.411295,270.905518,272.002228,15.000000,28.710192,77.206405,5.000000,284.414062,1.280000,195.752625
462463458.438978,-1.017624,0.480621,-0.158752,-1.661564,-0.133774,0.519247,-0.986986,0.133375,0.089833,0.022554,0.363817,-0.286580,-0.289557,0.946616,0.634070,271.669373,272.766083,15.000000,28.710192,77.206405,5.000000,284.414062,1.280000,195.752625
462463458.472306,-1.091415,0.523560,-0.076141,-1.634272,-0.163251,0.510224,-0.984717,0.162527,0.062589,-0.059518,0.332819,-0.201902,-0.166578,0.727644,1.088603,271.502991,272.599701,15.000000,28.710192,77.206405,5.000000,284.414062,1.280000,195.752625
462463458.505630,-1.048157,0.443924,-0.058792,-1.623920,-0.194956,0.504863,-0.979672,0.193723,0.052092,-0.111743,0.329836,-0.128234,-0.047650,0.151252,0.813429,269.625122,270.721832,15.000000,28.710192,77.206405,5.000000,284.414062,1.280000,195.752625
462463458.538996,-0.885803,0.273499,-0.105392,-1.616829,-0.206361,0.507042,-0.977746,0.204899,0.045040,0.009744,0.135936,-0.133220,0.141222,0.386559,0.013408,268.519379,269.616089,15.000000,28.710192,77.206405,5.000000,284.414062,1.280000,195.752625
462463458.571663,-0.683121,0.195999,-0.075623,-1.590986,-0.199120,0.508526,-0.980041,0.197806,0.019789,0.124389,0.045113,-0.137068,-0.074663,1.085426,-0.285572,266.937408,268.034119,15.000000,28.710192,77.206405,5.000000,284.414062,1.280000,195.752625
462463458.605631,-0.531235,0.192139,-0.032516,-1.548944,-0.192048,0.506922,-0.981381,0.190870,-0.021449,0.298260,0.005129,-0.054174,0.073542,1.349311,-0.157746,267.616364,268.713074,15.000000,28.710192,77.206405,5.000000,284.414062,1.280000,195.752625
462463458.638933,-0.517365,0.208771,-0.020279,-1.513533,-0.186472,0.516451,-0.981054,0.185393,-0.056240,0.492498,0.006288,0.034603,0.404080,0.719163,-0.213602,268.446899,269.543610,15.000000,28.710192,77.206405,5.000000,284.414062,1.280000,195.752625
462463458.672301,-0.582321,0.259186,0.007248,-1.509113,-0.177215,0.528809,-0.982466,0.176289,-0.060679,0.451659,0.046260,0.043360,0.350498,-0.380282,-0.228676,269.189484,270.286194,15.000000,28.710192,77.206405,5.000000,284.414062,1.280000,195.752625
462463458.705765,-0.616379,0.318085,-0.006607,-1.528966,-0.188244,0.549410,-0.981475,0.187134,-0.041079,0.365096,0.130951,0.034472,0.528074,-0.405840,0.631608,268.894714,269.991425,15.000000,28.710192,77.206405,5.000000,284.414062,1.280000,195.752625
462463458.738991,-0.762344,0.427444,-0.039078,-1.541809,-0.216152,0.570210,-0.976320,0.214472,-0.028309,0.238801,0.207586,-0.003765,0.649766,-0.681550,1.033015,266.384918,267.481628,15.000000,28.710192,77.206405,5.000000,284.414062,1.280000,195.752625
462463458.772324,-0.838028,0.410217,-0.030365,-1.569975,-0.252253,0.595709,-0.968352,0.249587,-0.000796,0.184417,0.179704,-0.036955,0.820009,-1.289049,1.170913,262.946930,264.043640,15.000000,28.710192,77.206405,5.000000,284.414062,1.280000,195.752625
462463458.805743,-0.972839,0.407684,-0.054672,-1.601703,-0.290275,0.621881,-0.957708,0.286215,0.029609,0.054250,0.125451,-0.068244,0.715635,-1.000483,1.114779,260.283783,261.380493,15.000000,28.710192,77.206405,5.000000,284.414062,1.280000,195.752625
462463458.839076,-1.245316,0.487610,-0.021484,-1.617456,-0.319153,0.632888,-0.948468,0.313763,0.044288,-0.239917,0.144657,-0.069068,0.007899,-0.290340,0.675284,255.400299,256.497009,15.000000,28.710192,77.206405,5.000000,284.414062,1.280000,195.752625
462463458.872338,-1.295502,0.460098,-0.028275,-1.627419,-0.321075,0.604981,-0.947376,0.315586,0.053700,-0.377087,0.201625,-0.070653,-1.458992,0.006526,-0.336869,254.337875,255.434586,15.000000,28.710192,77.206405,5.000000,284.414062,1.280000,195.752625
462463458.905080,-1.392822,0.440887,-0.054657,-1.637656,-0.303902,0.546353,-0.952044,0.299245,0.063748,-0.348233,0.112040,-0.099713,-1.632134,0.643785,-0.196919,256.561249,257.657959,15.000000,28.710192,77.206405,5.000000,284.414062,1.280000,195.752625
462463458.939084,-1.567810,0.733856,-0.172943,-1.601586,-0.318857,0.519871,-0.949144,0.313482,0.029233,-0.627775,0.279521,-0.134336,-0.034794,1.505631,0.735145,259.839752,260.936462,15.000000,28.710192,77.206405,5.000000,284.414062,1.280000,195.752625
462463458.972147,-1.144165,0.439468,-0.301117,-1.582317,-0.326159,0.549428,-0.947217,0.320407,0.010913,-0.336703,0.266141,-0.270786,1.470020,-0.748780,-0.258156,259.305084,260.401794,15.000000,28.710192,77.206405,5.000000,284.414062,1.280000,195.752625
462463459.005736,-1.250916,0.414993,-0.296265,-1.619671,-0.307571,0.618285,-0.951934,0.302744,0.046562,-0.234071,0.119985,-0.346093,2.241525,-2.292662,-0.744408,258.554993,259.651703,15.000000,28.710192,77.206405,5.000000,284.414062,1.280000,195.752625
462463459.039136,-1.335876,0.513000,-0.203735,-1.662629,-0.289374,0.691902,-0.954384,0.285352,0.087891,-0.444297,0.200625,-0.325059,1.924485,-1.654318,-0.749531,255.729156,256.825867,15.000000,28.710192,77.206405,5.000000,284.414062,1.280000,195.752625
462463459.072416,-0.954712,0.366882,-0.144913,-1.682368,-0.253358,0.763408,-0.962057,0.250656,0.107786,-0.087046,0.161453,-0.251402,0.964811,-0.067918,-0.947137,252.059204,253.155914,15.000000,28.710192,77.206405,5.000000,284.414062,1.280000,195.752625
462463459.105773,-0.668961,0.268341,-0.133698,-1.658555,-0.226793,0.795742,-0.970643,0.224854,0.085401,0.181351,0.066818,-0.220182,0.923174,0.758562,-0.881268,251.516846,252.613556,15.000000,28.710192,77.206405,5.000000,284.414062,1.280000,195.752625
462463459.138938,-0.563095,0.266922,-0.115738,-1.626172,-0.203842,0.838108,-0.977795,0.202433,0.054202,0.414700,0.064489,-0.169940,1.522688,0.576228,-0.738226,250.704681,251.801392,15.000000,28.710192,77.206405,5.000000,284.414062,1.280000,195.752625
462463459.172273,-0.455429,0.285004,-0.121460,-1.607446,-0.186835,0.903267,-0.981937,0.185750,0.036003,0.516849,0.085612,-0.162255,2.208393,-0.105632,-0.530986,250.108475,251.205185,15.000000,28.710192,77.206405,5.000000,284.414062,1.280000,195.752625
462463459.204616,-0.477432,0.353760,-0.052704,-1.607498,-0.174076,0.977630,-0.984224,0.173198,0.036139,0.526567,0.142491,-0.142295,2.164850,-0.573822,-0.454671,248.959915,250.056625,15.000000,28.710200,77.206400,5.000000,284.414062,1.410000,195.029724
462463459.238955,-0.497269,0.405807,0.010071,-1.626907,-0.161076,1.035193,-0.985502,0.160380,0.055356,0.500028,0.219426,-0.077740,1.329217,-1.176691,-0.527032,245.112427,246.209137,15.000000,28.710200,77.206400,5.000000,284.414062,1.410000,195.029724
462463459.272286,-0.541290,0.476913,0.027649,-1.669518,-0.144010,1.058988,-0.984830,0.143512,0.097541,0.467374,0.311825,-0.063148,0.268496,-1.499876,-0.584380,242.956085,244.052795,15.000000,28.710200,77.206400,5.000000,284.414062,1.410000,195.029724
462463459.305595,-0.722961,0.647125,-0.059235,-1.712979,-0.128212,1.051882,-0.981784,0.127861,0.140541,0.346881,0.447960,-0.142479,-0.639469,-1.063405,-0.291880,243.087753,244.184464,15.000000,28.710200,77.206400,5.000000,284.414062,1.410000,195.029724
462463459.338470,-0.787811,0.726105,-0.101181,-1.736295,-0.127573,1.018138,-0.978321,0.127227,0.163405,0.208210,0.569062,-0.235594,-1.207338,-0.268475,0.525479,244.224060,245.320770,15.000000,28.710200,77.206400,5.000000,284.414062,1.410000,195.029724
462463459.372368,-0.842621,0.835190,-0.195389,-1.725076,-0.159523,0.975429,-0.975577,0.158847,0.151717,0.180151,0.615460,-0.319823,-1.025030,1.134405,1.599941,245.064362,246.161072,15.000000,28.710200,77.206400,5.000000,284.414062,1.410000,195.029724
462463459.405600,-0.835007,0.757507,-0.277100,-1.688146,-0.204060,0.933450,-0.972517,0.202647,0.114651,0.069456,0.634420,-0.339413,-1.181174,1.440623,1.362670,244.368622,245.465332,15.000000,28.710200,77.206400,5.000000,284.414062,1.410000,195.029724
462463459.438963,-0.976303,0.822083,-0.261765,-1.648371,-0.237430,0.886291,-0.969023,0.235205,0.075323,0.082746,0.534677,-0.366216,-1.406837,1.606001,1.121392,244.438080,245.534790,15.000000,28.710200,77.206400,5.000000,284.414062,1.410000,195.029724
462463459.472262,-1.036880,0.794525,-0.198395,-1.609375,-0.280550,0.829156,-0.960188,0.276884,0.037062,-0.104082,0.515642,-0.251631,-1.764198,1.600791,1.667727,245.091171,246.187881,15.000000,28.710200,77.206400,5.000000,284.414062,1.410000,195.029724
462463459.505144,-0.767365,0.699493,-0.259552,-1.583606,-0.338493,0.780683,-0.943179,0.332066,0.012082,0.007296,0.442897,-0.211560,-0.932619,0.882475,1.837404,245.492035,246.588745,15.000000,28.710200,77.206400,5.000000,284.414062,1.410000,195.029724
462463459.538958,-0.924835,0.680008,-0.314316,-1.574497,-0.393032,0.775785,-0.923746,0.382991,0.003418,0.116037,0.290104,-0.289093,0.463000,0.044274,1.646578,242.892395,243.989105,15.000000,28.710200,77.206400,5.000000,284.414062,1.410000,195.029724
462463459.572279,-1.292374,0.707047,-0.232925,-1.560126,-0.452235,0.811251,-0.899421,0.436977,-0.009597,-0.266579,0.286030,-0.285233,1.128893,0.037062,2.000668,238.174957,239.271667,15.000000,28.710200,77.206400,5.000000,284.414062,1.410000,195.029724
462463459.605616,-0.986435,0.465332,-0.116119,-1.542212,-0.518389,0.845503,-0.868264,0.495481,-0.024825,-0.373176,0.155321,-0.181657,0.728359,0.117383,1.994366,230.699402,231.796112,15.000000,28.710200,77.206400,5.000000,284.414062,1.410000,195.029724
462463459.639033,-0.827469,0.299774,-0.070740,-1.529519,-0.563142,0.867362,-0.844862,0.533845,-0.034893,-0.141573,-0.068513,-0.081226,0.445653,0.016964,0.902500,227.408569,228.505280,15.000000,28.710200,77.206400,5.000000,284.414062,1.410000,195.029724
462463459.672417,-0.831909,0.150543,-0.091461,-1.509975,-0.572337,0.880407,-0.839083,0.541598,-0.051097,0.023730,-0.331591,-0.032186,0.174031,0.727342,-0.030217,225.392380,226.489090,15.000000,28.710200,77.206400,5.000000,284.414062,1.410000,195.029724
462463459.705939,-0.689011,0.213593,-0.076859,-1.473360,-0.563548,0.875950,-0.841355,0.534189,-0.082239,0.028810,-0.400049,-0.002173,-0.244388,1.496519,-0.431489,226.388336,227.485046,15.000000,28.710200,77.206400,5.000000,284.414062,1.410000,195.029724
462463459.739045,-0.592499,0.254974,-0.071671,-1.417024,-0.535389,0.847248,-0.849922,0.510176,-0.131734,0.257423,-0.255201,0.060063,-0.507986,1.314444,-0.728358,228.039398,229.136108,15.000000,28.710200,77.206400,5.000000,284.414062,1.410000,195.029724
462463459.772396,-0.574265,0.370728,-0.082581,-1.395620,-0.517296,0.826467,-0.855858,0.494532,-0.151478,0.283012,-0.150843,0.078633,-0.436140,0.771667,-0.506455,231.064865,232.161575,15.000000,28.710200,77.206400,5.000000,284.414062,1.410000,195.029724
462463459.805196,-0.653885,0.502716,-0.139038,-1.389786,-0.514112,0.808770,-0.856504,0.491762,-0.156752,0.218290,-0.056413,0.036772,-0.459034,0.150157,0.051017,233.695923,234.792633,15.000000,28.710200,77.206400,5.000000,284.414062,1.410000,195.029724
462463459.839048,-0.656235,0.543488,-0.194672,-1.406874,-0.525817,0.796929,-0.853320,0.501920,-0.141145,0.227587,0.015704,-0.017684,-0.267539,-0.651169,0.444775,233.887680,234.984390,15.000000,28.710200,77.206400,5.000000,284.414062,1.410000,195.029724
462463459.872392,-0.752045,0.565048,-0.241623,-1.438610,-0.539781,0.797237,-0.850338,0.513948,-0.113062,0.151577,0.046843,-0.103124,0.091499,-1.221380,0.376339,232.450043,233.546753,15.000000,28.710200,77.206400,5.000000,284.414062,1.410000,195.029724
462463459.905724,-1.053513,0.663101,-0.274658,-1.474668,-0.549437,0.807268,-0.848881,0.522207,-0.081854,-0.044780,0.059503,-0.181833,0.265604,-1.137979,0.286556,230.302200,231.398911,15.000000,28.710200,77.206400,5.000000,284.414062,1.410000,195.029724
462463459.939063,-1.214157,0.700684,-0.253677,-1.505095,-0.544382,0.802689,-0.853602,0.517889,-0.056164,-0.276784,0.189874,-0.232777,-0.522666,-0.779810,-0.623419,228.744812,229.841522,15.000000,28.710200,77.206400,5.000000,284.414062,1.410000,195.029724
462463459.972416,-1.361938,0.672165,-0.202667,-1.542975,-0.509066,0.764282,-0.872862,0.487362,-0.024290,-0.381410,0.173557,-0.203035,-1.127299,-0.279037,-1.336987,229.322998,230.419708,15.000000,28.710200,77.206400,5.000000,284.414062,1.410000,195.029724
462463460.006309,-1.611923,0.890625,-0.235306,-1.541046,-0.477137,0.737183,-0.887920,0.459238,-0.026424,-0.671925,0.296087,-0.176243,-0.277726,0.929089,-0.763017,233.402863,234.499573,15.000000,28.710200,77.206400,5.000000,284.414062,1.410000,195.029724
462463460.039231,-1.111389,0.622681,-0.272522,-1.522569,-0.422638,0.754270,-0.910950,0.410168,-0.043967,-0.244156,0.279972,-0.252649,0.852317,-0.753006,-1.540399,233.706650,234.803360,15.000000,28.710200,77.206400,5.000000,284.414062,1.410000,195.029724
462463460.072407,-1.175415,0.616898,-0.251709,-1.552987,-0.365301,0.790861,-0.933868,0.357230,-0.016634,-0.241547,0.259668,-0.235075,1.180126,-1.552325,-1.788575,235.089386,236.186096,15.000000,28.710200,77.206400,5.000000,284.414062,1.410000,195.029724
462463460.105673,-1.333008,0.728149,-0.271439,-1.583226,-0.309859,0.827402,-0.952303,0.304924,0.011837,-0.429441,0.423225,-0.281338,0.987397,-1.080693,-1.655664,237.810242,238.906952,15.000000,28.710200,77.206400,5.000000,284.414062,1.410000,195.029724
462463460.139006,-0.909760,0.592590,-0.276505,-1.593629,-0.259749,0.859853,-0.966203,0.256838,0.022064,-0.053771,0.391539,-0.296005,0.906063,-0.243823,-1.518221,238.712799,239.809509,15.000000,28.710200,77.206400,5.000000,284.414062,1.410000,195.029724
462463460.172345,-0.757019,0.505447,-0.257904,-1.580077,-0.215562,0.892132,-0.976814,0.213897,0.009066,0.219795,0.291551,-0.266970,1.011433,0.402705,-1.248131,239.317566,240.414276,15.000000,28.710200,77.206400,5.000000,284.414062,1.410000,195.029724
462463460.205661,-0.542969,0.393600,-0.207886,-1.555775,-0.181446,0.929235,-0.983473,0.180452,-0.014774,0.395140,0.242689,-0.197567,1.234149,0.539672,-0.928145,240.047287,241.143997,15.000000,28.710206,77.206392,5.000000,270.703125,1.370000,194.343018
462463460.238927,-0.400696,0.336166,-0.151123,-1.535637,-0.155353,0.975610,-0.987346,0.154729,-0.034729,0.525676,0.207316,-0.147355,1.607399,0.226491,-0.662305,238.832275,239.928986,15.000000,28.710206,77.206392,5.000000,270.703125,1.370000,194.343018
462463460.272259,-0.392319,0.343781,-0.135284,-1.530773,-0.144779,1.003672,-0.988745,0.144274,-0.039594,0.588050,0.191893,-0.111529,1.800465,-0.058537,-0.559167,237.956299,239.053009,15.000000,28.710206,77.206392,5.000000,270.703125,1.370000,194.343018
462463460.305609,-0.346481,0.367188,-0.101837,-1.540094,-0.121039,1.089508,-0.992216,0.120744,-0.030473,0.641142,0.230727,-0.094755,1.615777,-0.703019,-0.296730,231.645065,232.741776,15.000000,28.710206,77.206392,5.000000,270.703125,1.370000,194.343018
462463460.339054,-0.381149,0.464920,-0.056686,-1.561113,-0.116271,1.128474,-0.993201,0.116010,-0.009617,0.646919,0.297092,-0.054256,0.817458,-0.745637,0.001381,229.804016,230.900726,15.000000,28.710206,77.206392,5.000000,270.703125,1.370000,194.343018
462463460.372261,-0.410995,0.529816,-0.029190,-1.584501,-0.119593,1.134048,-0.992764,0.119308,0.013606,0.595425,0.374146,-0.051662,-0.290562,-0.751811,0.199160,228.743698,229.840408,15.000000,28.710206,77.206392,5.000000,270.703125,1.370000,194.343018
462463460.405625,-0.574799,0.680283,-0.080200,-1.602695,-0.132530,1.101583,-0.990726,0.132142,0.031614,0.471882,0.511519,-0.098310,-1.485376,-0.238903,0.542387,228.121994,229.218704,15.000000,28.710206,77.206392,5.000000,270.703125,1.370000,194.343018
462463460.438196,-0.742340,0.865341,-0.202621,-1.622694,-0.150865,1.034402,-0.987310,0.150294,0.051285,0.319342,0.627096,-0.156250,-2.356034,-0.404407,0.750887,229.063431,230.160141,15.000000,28.710206,77.206392,5.000000,270.703125,1.370000,194.343018
462463460.471609,-0.874893,0.948059,-0.333252,-1.653988,-0.168105,0.949612,-0.982494,0.167314,0.081924,0.197078,0.725493,-0.317047,-2.602794,-0.746749,0.557208,230.030243,231.126953,15.000000,28.710206,77.206392,5.000000,270.703125,1.370000,194.343018
462463460.505595,-1.091980,0.997421,-0.407364,-1.690365,-0.180303,0.866570,-0.976765,0.179327,0.117350,0.101872,0.768732,-0.450602,-2.384553,-0.433570,0.780241,234.506805,235.603516,15.000000,28.710206,77.206392,5.000000,270.703125,1.370000,194.343018
462463460.538945,-1.182724,0.975952,-0.463837,-1.701303,-0.211309,0.789078,-0.969442,0.209740,0.127242,-0.258295,0.790702,-0.574294,-1.984951,0.605358,1.684305,238.982544,240.079254,15.000000,28.710206,77.206392,5.000000,270.703125,1.370000,194.343018
462463460.572213,-0.926132,0.740616,-0.408188,-1.678016,-0.273055,0.739485,-0.957422,0.269674,0.103050,-0.166922,0.687693,-0.565788,-0.534272,1.239919,2.225883,237.854187,238.950897,15.000000,28.710206,77.206392,5.000000,270.703125,1.370000,194.343018
462463460.605587,-0.971527,0.620178,-0.360260,-1.637050,-0.342357,0.756375,-0.939899,0.335708,0.062363,0.013767,0.404908,-0.470551,1.486163,0.846519,1.978058,235.417007,236.513718,15.000000,28.710206,77.206392,5.000000,270.703125,1.370000,194.343018
462463460.638941,-1.290512,0.562439,-0.140854,-1.596894,-0.403661,0.829176,-0.919316,0.392788,0.023998,-0.113979,0.192524,-0.337566,2.486875,0.250227,1.711041,229.856750,230.953461,15.000000,28.710206,77.206392,5.000000,270.703125,1.370000,194.343018
462463460.672280,-1.127213,0.403229,0.160416,-1.553377,-0.457703,0.901774,-0.896934,0.441889,-0.015625,-0.414040,0.093191,-0.034271,1.331016,0.532204,1.599356,222.461212,223.557922,15.000000,28.710206,77.206392,5.000000,270.703125,1.370000,194.343018
462463460.705641,-0.930130,0.310837,0.185883,-1.532544,-0.510408,0.874081,-0.871907,0.488533,-0.033369,-0.058223,-0.177696,0.219251,-1.631315,0.943871,0.596407,219.944077,221.040787,15.000000,28.710206,77.206392,5.000000,270.703125,1.370000,194.343018
462463460.739039,-0.662552,0.159973,0.056320,-1.522892,-0.524095,0.809744,-0.864784,0.500430,-0.041458,0.161033,-0.327945,0.176712,-1.576689,1.624071,0.249659,221.256882,222.353592,15.000000,28.710206,77.206392,5.000000,270.703125,1.370000,194.343018
462463460.772262,-0.641251,0.288406,-0.144302,-1.479353,-0.531757,0.775729,-0.858317,0.507048,-0.078707,0.180414,-0.284575,0.019793,-0.456615,1.896855,0.116418,224.437653,225.534363,15.000000,28.710206,77.206392,5.000000,270.703125,1.370000,194.343018
462463460.805593,-0.549225,0.296829,-0.219864,-1.432756,-0.534079,0.771543,-0.852550,0.509048,-0.118440,0.255504,-0.213775,-0.071990,0.005025,1.162877,0.033318,225.806656,226.903366,15.000000,28.710206,77.206392,5.000000,270.703125,1.370000,194.343018
462463460.838946,-0.544632,0.376450,-0.117905,-1.412270,-0.532568,0.771867,-0.850704,0.507747,-0.136000,0.318813,-0.147747,-0.010469,-0.019262,0.212548,-0.068421,227.755646,228.852356,15.000000,28.710206,77.206392,5.000000,270.703125,1.370000,194.343018
462463460.872279,-0.676117,0.488403,-0.071686,-1.419332,-0.537350,0.768213,-0.849233,0.511861,-0.129621,0.260442,-0.091070,0.059614,-0.205135,-0.333261,0.283306,228.332520,229.429230,15.000000,28.710206,77.206392,5.000000,270.703125,1.370000,194.343018
462463460.905648,-0.723602,0.539383,-0.094681,-1.440710,-0.553357,0.759101,-0.843577,0.525546,-0.110361,0.140330,-0.003482,0.032114,-0.314574,-0.607382,0.559708,228.231842,229.328552,15.000000,28.710206,77.206392,5.000000,270.703125,1.370000,194.343018
462463460.938987,-0.810272,0.592667,-0.184616,-1.464621,-0.573208,0.761368,-0.835434,0.542330,-0.089038,0.077622,0.029402,-0.037580,0.267439,-0.873486,0.630250,226.709793,227.806503,15.000000,28.710206,77.206392,5.000000,270.703125,1.370000,194.343018
462463460.972323,-0.982559,0.641342,-0.229355,-1.472078,-0.589276,0.787216,-0.827296,0.555759,-0.081936,-0.070760,0.038372,-0.159764,0.830998,-0.528451,0.456655,223.314087,224.410797,15.000000,28.710206,77.206392,5.000000,270.703125,1.370000,194.343018
462463461.005800,-1.063293,0.692825,-0.210312,-1.469527,-0.591265,0.816730,-0.825983,0.557411,-0.083934,-0.193884,0.120735,-0.129002,0.463057,-0.381938,-0.210093,221.934189,223.030899,15.000000,28.710206,77.206392,5.000000,270.703125,1.370000,194.343018
462463461.039099,-1.215378,0.680237,-0.078293,-1.494576,-0.566318,0.800159,-0.841432,0.536528,-0.064259,-0.286101,0.151857,-0.094158,-0.928952,-0.539101,-1.151268,220.603439,221.700150,15.000000,28.710206,77.206392,5.000000,270.703125,1.370000,194.343018
462463461.072292,-1.490387,0.868546,-0.116119,-1.519126,-0.532678,0.734713,-0.860300,0.507842,-0.044492,-0.600713,0.298951,-0.046817,-0.744978,1.032413,-0.207798,225.293991,226.390701,15.000000,28.710206,77.206392,5.000000,270.703125,1.370000,194.343018
462463461.105587,-1.088974,0.704437,-0.251221,-1.506070,-0.520884,0.727984,-0.865563,0.497647,-0.056103,-0.477546,0.362597,-0.122440,0.333982,-0.215679,-0.659266,226.824280,227.920990,15.000000,28.710206,77.206392,5.000000,270.703125,1.370000,194.343018
462463461.138942,-1.090500,0.655762,-0.336227,-1.512806,-0.503826,0.740706,-0.874270,0.482780,-0.050757,-0.214704,0.221658,-0.200464,0.959046,-1.079299,-1.198557,228.408081,229.504791,15.000000,28.710206,77.206392,5.000000,270.703125,1.370000,194.343018
462463461.172291,-1.287704,0.698288,-0.329025,-1.564165,-0.418577,0.819207,-0.913648,0.406461,-0.006059,-0.340472,0.272372,-0.332427,1.607584,-1.854688,-1.742208,229.055588,230.152298,15.000000,28.710206,77.206392,5.000000,270.703125,1.370000,194.343018
462463461.205590,-1.057053,0.721176,-0.281952,-1.584670,-0.369971,0.872097,-0.932248,0.361588,0.012935,-0.282382,0.371414,-0.318752,1.399239,-0.786519,-1.379894,229.513748,230.610458,15.000000,28.710211,77.206383,5.000000,254.882812,1.380000,193.313232
462463461.238964,-0.799362,0.617004,-0.276810,-1.580832,-0.327388,0.917949,-0.946838,0.321570,0.009502,0.040222,0.341683,-0.293560,1.288167,-0.177124,-1.346554,229.476807,230.573517,15.000000,28.710211,77.206383,5.000000,254.882812,1.380000,193.313232
462463461.272271,-0.643234,0.456314,-0.222916,-1.566538,-0.281536,0.961379,-0.960621,0.277831,-0.004091,0.310704,0.198029,-0.231901,1.288159,0.157134,-1.488968,228.834152,229.930862,15.000000,28.710211,77.206383,5.000000,254.882812,1.380000,193.313232
462463461.305636,-0.540237,0.395584,-0.167313,-1.549583,-0.231009,1.003481,-0.973217,0.228959,-0.020648,0.368999,0.192732,-0.164777,1.280339,0.173855,-1.579476,228.865402,229.962112,15.000000,28.710211,77.206383,5.000000,254.882812,1.380000,193.313232
462463461.339025,-0.485657,0.396393,-0.149857,-1.538936,-0.179767,1.043657,-0.983386,0.178801,-0.031342,0.473712,0.213686,-0.129166,1.249826,-0.006008,-1.505935,229.701294,230.798004,15.000000,28.710211,77.206383,5.000000,254.882812,1.380000,193.313232
462463461.372362,-0.445755,0.446548,-0.112854,-1.539893,-0.133110,1.080665,-0.990681,0.132717,-0.030625,0.528858,0.279179,-0.098525,1.074054,-0.338129,-1.342925,230.804337,231.901047,15.000000,28.710211,77.206383,5.000000,254.882812,1.380000,193.313232
462463461.405672,-0.416351,0.498077,-0.081955,-1.553572,-0.091312,1.105628,-0.995686,0.091185,-0.017151,0.571507,0.373826,-0.087570,0.568781,-0.607588,-1.214778,230.687546,231.784256,15.000000,28.710211,77.206383,5.000000,254.882812,1.380000,193.313232
462463461.439089,-0.457352,0.562134,-0.091202,-1.568224,-0.058541,1.112250,-0.998284,0.058508,-0.002568,0.568581,0.463694,-0.082973,-0.086690,-0.304362,-0.842159,232.657227,233.753937,15.000000,28.710211,77.206383,5.000000,254.882812,1.380000,193.313232
462463461.472355,-0.496460,0.684402,-0.120682,-1.570882,-0.042036,1.094303,-0.999117,0.042024,0.000085,0.508363,0.591262,-0.104715,-0.868822,0.100147,-0.231172,235.057861,236.154572,15.000000,28.710211,77.206383,5.000000,254.882812,1.380000,193.313232
462463461.505643,-0.585083,0.800659,-0.170639,-1.568535,-0.048063,1.057859,-0.998843,0.048045,-0.002259,0.493288,0.665136,-0.122940,-1.255532,0.039365,0.452135,237.037872,238.134583,15.000000,28.710211,77.206383,5.000000,254.882812,1.380000,193.313232
462463461.539222,-0.682175,0.855850,-0.197357,-1.576507,-0.068097,1.019748,-0.997666,0.068044,0.005697,0.370301,0.756984,-0.192724,-1.069278,-0.414535,0.638646,237.410675,238.507385,15.000000,28.710211,77.206383,5.000000,254.882812,1.380000,193.313232
462463461.572327,-0.962784,0.898743,-0.253555,-1.602212,-0.090194,0.985091,-0.995444,0.090072,0.031283,0.200141,0.799332,-0.254870,-1.120248,-0.795122,0.794553,238.424667,239.521378,15.000000,28.710211,77.206383,5.000000,254.882812,1.380000,193.313232
462463461.605714,-1.192963,0.940887,-0.190109,-1.625774,-0.124478,0.939900,-0.990763,0.124157,0.054525,-0.053182,0.803822,-0.303167,-1.540563,-0.335325,1.491936,239.123352,240.220062,15.000000,28.710211,77.206383,5.000000,254.882812,1.380000,193.313232
462463461.638896,-1.168518,0.899872,-0.158188,-1.631689,-0.184762,0.881965,-0.981158,0.183713,0.059819,-0.211805,0.757174,-0.249928,-1.635809,0.334195,2.209235,238.624832,239.721542,15.000000,28.710211,77.206383,5.000000,254.882812,1.380000,193.313232
462463461.671693,-1.088974,0.646118,-0.164307,-1.624903,-0.252323,0.829511,-0.966918,0.249655,0.052368,-0.114183,0.528208,-0.208938,-1.348019,0.750449,2.038923,237.850662,238.947372,15.000000,28.710211,77.206383,5.000000,254.882812,1.380000,193.313232
462463461.705494,-1.229019,0.504593,-0.089584,-1.606407,-0.302294,0.783001,-0.954051,0.297711,0.033988,-0.171987,0.302844,-0.194999,-1.312591,1.066456,1.282067,236.641769,237.738480,15.000000,28.710211,77.206383,5.000000,254.882812,1.380000,193.313232
462463461.738763,-1.247299,0.463211,-0.068649,-1.571048,-0.348068,0.711610,-0.940034,0.341082,0.000236,-0.307266,0.122129,-0.068886,-1.485358,1.332473,0.864339,237.269836,238.366547,15.000000,28.710211,77.206383,5.000000,254.882812,1.380000,193.313232
462463461.772095,-0.968124,0.388077,-0.056702,-1.551562,-0.370329,0.652902,-0.932036,0.361922,-0.017929,-0.127046,0.052507,-0.034928,-1.860250,1.155493,0.506989,239.535370,240.632080,15.000000,28.710211,77.206383,5.000000,254.882812,1.380000,193.313232
462463461.805427,-0.711502,0.261002,-0.089325,-1.537975,-0.378797,0.591141,-0.928610,0.369803,-0.030489,0.099752,-0.063086,-0.035658,-1.628659,1.135717,0.000204,242.470673,243.567383,15.000000,28.710211,77.206383,5.000000,254.882812,1.380000,193.313232
462463461.838735,-0.672897,0.245529,-0.150146,-1.518475,-0.375569,0.543242,-0.929026,0.366802,-0.048652,0.238963,-0.126811,-0.073189,-1.276352,1.139232,-0.187463,244.207214,245.303925,15.000000,28.710211,77.206383,5.000000,254.882812,1.380000,193.313232
462463461.872151,-0.574478,0.257050,-0.138336,-1.501471,-0.374760,0.498298,-0.928360,0.366049,-0.064462,0.299332,-0.116797,-0.088004,-1.311352,0.907248,0.001246,250.740524,251.837234,10.000000,28.710211,77.206383,5.000000,254.882812,1.380000,193.313232
462463461.905354,-0.509048,0.325851,-0.121796,-1.497747,-0.384589,0.457322,-0.924481,0.375178,-0.067653,0.414761,-0.084010,-0.050084,-1.006878,0.325099,0.397344,253.517654,254.614365,10.000000,28.710211,77.206383,5.000000,254.882812,1.380000,193.313232
462463461.938808,-0.638107,0.430466,-0.193970,-1.502682,-0.408277,0.441803,-0.915678,0.397029,-0.062467,0.391966,-0.048167,-0.067507,-0.133474,-0.206245,0.904646,254.738541,255.835251,10.000000,28.710211,77.206383,5.000000,254.882812,1.380000,193.313232
462463461.972234,-0.727127,0.470474,-0.218750,-1.515324,-0.442782,0.451320,-0.902173,0.428455,-0.050097,0.215940,0.025815,-0.161054,0.356164,-0.688069,1.173056,253.612274,254.708984,10.000000,28.710211,77.206383,5.000000,254.882812,1.380000,193.313232
462463462.005648,-0.855972,0.485260,-0.161987,-1.534667,-0.480978,0.467894,-0.885964,0.462647,-0.032023,0.092980,0.030090,-0.160634,0.402778,-0.869840,1.186204,251.228485,252.325195,10.000000,28.710211,77.206383,5.000000,254.882812,1.380000,193.313232
462463462.038861,-1.059158,0.521042,-0.145096,-1.550857,-0.512828,0.484122,-0.871187,0.490643,-0.017373,-0.018110,-0.000546,-0.141608,0.440920,-0.592051,0.848219,248.892700,249.989410,10.000000,28.710211,77.206383,5.000000,254.882812,1.380000,193.313232
462463462.072224,-1.173569,0.543762,-0.140411,-1.540661,-0.541250,0.505383,-0.856676,0.515207,-0.025824,-0.316892,0.028555,-0.114588,0.206096,0.417374,0.321514,245.228271,246.324982,10.000000,28.710211,77.206383,5.000000,254.882812,1.380000,193.313232
462463462.105734,-1.244781,0.596527,-0.111862,-1.529594,-0.535068,0.498194,-0.859504,0.509899,-0.035434,-0.373864,0.089817,-0.093473,-0.508915,0.375104,-0.593672,242.802841,243.899551,10.000000,28.710211,77.206383,5.000000,254.882812,1.380000,193.313232
462463462.139304,-1.447571,0.627747,-0.091507,-1.525364,-0.511190,0.470004,-0.871263,0.489216,-0.039611,-0.495757,0.097988,-0.051560,-0.694966,0.839202,-0.710740,244.488647,245.585358,10.000000,28.710211,77.206383,5.000000,254.882812,1.380000,193.313232
462463462.172331,-1.462006,0.679977,-0.102432,-1.490310,-0.498609,0.465134,-0.875406,0.478204,-0.070610,-0.586600,0.201773,-0.031822,0.439323,1.189991,-0.257815,246.330109,247.426819,10.000000,28.710211,77.206383,5.000000,254.882812,1.380000,193.313232
462463462.205431,-1.147507,0.607056,-0.214050,-1.456339,-0.480768,0.504589,-0.880838,0.462461,-0.101261,-0.360464,0.202395,-0.097286,1.561181,-0.201619,-0.661165,248.250229,249.346939,10.000000,28.710216,77.206374,5.000000,255.937500,1.110000,193.680481
462463462.238761,-1.103943,0.526123,-0.176117,-1.469202,-0.439553,0.567565,-0.900276,0.425535,-0.091778,-0.167916,0.104815,-0.113849,1.965922,-1.994134,-1.360028,247.381912,248.478622,10.000000,28.710216,77.206374,5.000000,255.937500,1.110000,193.680481
462463462.272145,-1.186996,0.561707,-0.159195,-1.494156,-0.412988,0.598543,-0.913237,0.401348,-0.070129,-0.190706,0.124775,-0.105988,1.834273,-2.446024,-1.517575,247.013031,248.109741,10.000000,28.710216,77.206374,5.000000,255.937500,1.110000,193.680481
462463462.305437,-1.171616,0.652054,-0.187073,-1.563869,-0.338472,0.676972,-0.943240,0.332046,-0.006535,-0.266415,0.319061,-0.170391,1.351740,-1.431376,-1.519172,245.148712,246.245422,10.000000,28.710216,77.206374,5.000000,255.937500,1.110000,193.680481
462463462.338777,-0.872452,0.511337,-0.234970,-1.579338,-0.284370,0.713929,-0.959804,0.280552,0.008199,-0.064092,0.323772,-0.238759,0.894477,-0.410988,-1.796361,245.317719,246.414429,10.000000,28.710216,77.206374,5.000000,255.937500,1.110000,193.680481
462463462.372091,-0.775742,0.451492,-0.209732,-1.569405,-0.221557,0.738217,-0.975556,0.219749,-0.001357,0.153427,0.261025,-0.222825,0.639743,0.426964,-2.053103,246.503494,247.600204,10.000000,28.710216,77.206374,5.000000,255.937500,1.110000,193.680481
462463462.405448,-0.652954,0.405762,-0.171982,-1.544845,-0.152391,0.758548,-0.988078,0.151802,-0.025648,0.305369,0.257164,-0.151446,0.681069,0.740387,-2.155952,248.943665,250.040375,10.000000,28.710216,77.206374,5.000000,255.937500,1.110000,193.680481
462463462.438832,-0.524139,0.416550,-0.151428,-1.519075,-0.084469,0.780931,-0.995102,0.084368,-0.051514,0.408371,0.317853,-0.111572,0.848959,0.648518,-1.985390,253.124832,254.221542,10.000000,28.710216,77.206374,5.000000,255.937500,1.110000,193.680481
462463462.472132,-0.425018,0.460480,-0.139023,-1.504877,-0.025394,0.808502,-0.997506,0.025392,-0.065850,0.499841,0.400405,-0.082831,1.039695,0.146552,-1.608041,254.869324,255.966034,10.000000,28.710216,77.206374,5.000000,255.937500,1.110000,193.680481
462463462.505456,-0.399963,0.484314,-0.136383,-1.513307,0.018391,0.843627,-0.998179,-0.018390,-0.057448,0.573161,0.478869,-0.081575,1.275148,-0.515232,-1.020133,256.814941,257.911652,10.000000,28.710216,77.206374,5.000000,255.937500,1.110000,193.680481
462463462.538833,-0.463074,0.540131,-0.129837,-1.538994,0.041517,0.884346,-0.998633,-0.041505,-0.031770,0.577582,0.557344,-0.105712,1.245595,-0.897167,-0.419958,256.117035,257.213745,10.000000,28.710216,77.206374,5.000000,255.937500,1.110000,193.680481
462463462.572099,-0.589096,0.536911,-0.085083,-1.574428,0.043937,0.919440,-0.999028,-0.043923,0.003628,0.514638,0.590539,-0.123531,0.939020,-1.163532,0.213549,255.560669,256.657379,10.000000,28.710216,77.206374,5.000000,255.937500,1.110000,193.680481
462463462.605444,-0.688446,0.549606,-0.080109,-1.617685,0.025654,0.940777,-0.998572,-0.025651,0.046857,0.409476,0.562562,-0.131940,0.498616,-1.369566,0.772230,252.968506,254.065216,10.000000,28.710216,77.206374,5.000000,255.937500,1.110000,193.680481
462463462.638792,-0.905640,0.590683,-0.073395,-1.660383,-0.003136,0.947915,-0.995985,0.003136,0.089467,0.247465,0.565315,-0.165135,0.075969,-1.311994,0.851389,250.604248,251.700958,10.000000,28.710216,77.206374,5.000000,255.937500,1.110000,193.680481
462463462.672114,-1.217865,0.643219,-0.076965,-1.694253,-0.027935,0.925637,-0.992002,0.027932,0.123095,0.027448,0.551490,-0.212863,-1.207418,-0.682535,0.890210,249.525803,250.622513,10.000000,28.710216,77.206374,5.000000,255.937500,1.110000,193.680481
462463462.705466,-1.210220,0.665970,-0.063248,-1.686709,-0.079983,0.828354,-0.990114,0.079898,0.115284,-0.220106,0.586072,-0.178531,-1.903469,0.919961,1.609481,250.346100,251.442810,10.000000,28.710216,77.206374,5.000000,255.937500,1.110000,193.680481
462463462.738846,-1.104752,0.592468,-0.177567,-1.660003,-0.126648,0.778109,-0.988046,0.126310,0.088375,-0.132742,0.502123,-0.229335,-0.934736,0.976543,1.540525,250.701767,251.798477,10.000000,28.710216,77.206374,5.000000,255.937500,1.110000,193.680481
462463462.772155,-1.219696,0.531647,-0.204880,-1.633200,-0.169143,0.762819,-0.983811,0.168338,0.061474,-0.166611,0.398908,-0.282177,-0.029987,0.771741,1.194452,250.618988,251.715698,10.000000,28.710216,77.206374,5.000000,255.937500,1.110000,193.680481
462463462.805556,-1.237701,0.513702,-0.144226,-1.616056,-0.202925,0.768411,-0.978478,0.201536,0.044316,-0.262092,0.323229,-0.216084,0.303239,0.317240,0.944102,249.590454,250.687164,10.000000,28.710216,77.206374,5.000000,255.937500,1.110000,193.680481
462463462.838909,-1.164841,0.449326,-0.028397,-1.610559,-0.228780,0.769073,-0.973174,0.226789,0.038717,-0.241792,0.252077,-0.077230,-0.223396,0.126841,0.700408,247.245514,248.342224,10.000000,28.710216,77.206374,5.000000,255.937500,1.110000,193.680481
462463462.872226,-0.875885,0.340546,-0.047043,-1.609363,-0.243467,0.747679,-0.969786,0.241069,0.037420,-0.060258,0.158543,-0.053472,-0.898546,0.322953,0.321185,246.184143,247.280853,10.000000,28.710216,77.206374,5.000000,255.937500,1.110000,193.680481
462463462.905555,-0.781769,0.301575,-0.059219,-1.598191,-0.247797,0.709761,-0.969091,0.245269,0.026555,0.137518,0.077225,-0.080113,-1.206074,0.852055,0.096398,246.682144,247.778854,10.000000,28.710216,77.206374,5.000000,255.937500,1.110000,193.680481
462463462.938896,-0.624130,0.266113,-0.130112,-1.576401,-0.250687,0.672117,-0.968727,0.248069,0.005430,0.282814,0.035866,-0.095777,-1.077667,0.954889,0.156136,248.904160,250.000870,10.000000,28.710216,77.206374,5.000000,255.937500,1.110000,193.680481
462463462.972234,-0.476990,0.285431,-0.173386,-1.559497,-0.258655,0.641787,-0.966673,0.255780,-0.010923,0.419051,0.006961,-0.156466,-0.724548,0.552795,0.304365,251.128891,252.225601,10.000000,28.710216,77.206374,5.000000,255.937500,1.110000,193.680481
462463463.005735,-0.482162,0.301041,-0.201096,-1.559092,-0.274070,0.630072,-0.962611,0.270651,-0.011267,0.488643,0.027154,-0.170755,-0.071824,-0.205381,0.667058,251.928955,253.025665,10.000000,28.710216,77.206374,5.000000,255.937500,1.110000,193.680481
462463463.039075,-0.551117,0.372437,-0.188293,-1.570880,-0.308560,0.644388,-0.952772,0.303687,0.000080,0.450498,0.021249,-0.210208,0.753462,-0.709764,1.351848,252.236969,253.333679,10.000000,28.710216,77.206374,5.000000,255.937500,1.110000,193.680481
462463463.072171,-0.691788,0.416321,-0.128906,-1.600433,-0.381537,0.695209,-0.927686,0.372348,0.027502,0.289777,0.041761,-0.182638,0.745575,-1.012640,1.391407,246.494537,247.591248,10.000000,28.710216,77.206374,5.000000,255.937500,1.110000,193.680481
462463463.105573,-0.808899,0.397324,-0.074020,-1.627563,-0.417507,0.691546,-0.912630,0.405483,0.051863,0.103731,-0.008159,-0.125883,-0.663838,-0.546206,0.913596,243.043518,244.140228,10.000000,28.710216,77.206374,5.000000,255.937500,1.110000,193.680481
462463463.138908,-0.982742,0.417404,-0.014526,-1.654677,-0.435527,0.644187,-0.903460,0.421888,0.075961,-0.046644,-0.006483,-0.089267,-1.596900,-0.020409,0.464455,239.082092,240.178802,10.000000,28.710216,77.206374,5.000000,255.937500,1.110000,193.680481
462463463.172166,-1.157120,0.552917,-0.184479,-1.668955,-0.439697,0.589373,-0.900525,0.425665,0.088679,-0.212619,0.069376,-0.219768,-1.327197,0.482354,0.165040,239.878555,240.975266,10.000000,28.710216,77.206374,5.000000,255.937500,1.110000,193.680481
462463463.204917,-1.206665,0.644028,-0.282440,-1.667669,-0.436409,0.552112,-0.902026,0.422687,0.087656,-0.304639,0.221340,-0.370097,-0.914008,0.442091,-0.122988,241.281616,242.378326,10.000000,28.710220,77.206365,5.000000,284.765625,1.340000,194.345581
462463463.238816,-1.253204,0.647858,-0.392151,-1.664092,-0.431641,0.529446,-0.904330,0.418362,0.084616,-0.286832,0.220508,-0.480978,-0.305985,0.442927,0.084176,244.571747,245.668457,10.000000,28.710220,77.206365,5.000000,284.765625,1.340000,194.345581
462463463.272248,-1.404373,0.767853,-0.334900,-1.635771,-0.450016,0.553057,-0.898540,0.434980,0.058465,-0.523381,0.314868,-0.393639,1.460386,0.553565,0.682188,246.302643,247.399353,10.000000,28.710220,77.206365,5.000000,284.765625,1.340000,194.345581
462463463.305474,-1.119308,0.524399,-0.288528,-1.598935,-0.464340,0.625926,-0.893763,0.447833,0.025156,-0.351873,0.238858,-0.378748,2.231977,-0.231693,0.006593,242.313995,243.410706,10.000000,28.710220,77.206365,5.000000,284.765625,1.340000,194.345581
462463463.338876,-1.127380,0.468353,-0.173706,-1.598266,-0.449682,0.693592,-0.900246,0.434679,0.024736,-0.204247,0.054365,-0.255296,1.433974,-1.374871,-0.766493,239.926605,241.023315,10.000000,28.710220,77.206365,5.000000,284.765625,1.340000,194.345581
462463463.372206,-1.250732,0.544739,-0.073227,-1.627801,-0.424447,0.727338,-0.909787,0.411816,0.051918,-0.312915,0.068759,-0.142753,0.692561,-1.148314,-0.795158,237.333069,238.429779,10.000000,28.710220,77.206365,5.000000,284.765625,1.340000,194.345581
462463463.405569,-1.046661,0.493835,-0.202408,-1.642535,-0.399345,0.756123,-0.918946,0.388815,0.066038,-0.265746,0.179422,-0.172742,0.880507,-0.615918,-0.905168,237.185028,238.281738,10.000000,28.710220,77.206365,5.000000,284.765625,1.340000,194.345581
462463463.438910,-0.871078,0.392868,-0.280319,-1.638968,-0.367324,0.794864,-0.931124,0.359119,0.063575,-0.015715,0.081097,-0.315742,1.129115,-0.127666,-1.182640,236.223343,237.320053,10.000000,28.710220,77.206365,5.000000,284.765625,1.340000,194.345581
462463463.472399,-0.678726,0.319260,-0.245682,-1.619273,-0.328183,0.841691,-0.945518,0.322323,0.045871,0.191321,0.012821,-0.326801,1.429585,0.214954,-1.342361,236.851105,237.947815,10.000000,28.710220,77.206365,5.000000,284.765625,1.340000,194.345581
462463463.505536,-0.557236,0.332367,-0.172623,-1.599950,-0.286451,0.898155,-0.958845,0.282550,0.027962,0.302595,0.041196,-0.255440,1.753397,-0.136302,-1.347366,237.136169,238.232880,10.000000,28.710220,77.206365,5.000000,284.765625,1.340000,194.345581
462463463.538952,-0.510376,0.344879,-0.143631,-1.600198,-0.244942,0.963793,-0.969732,0.242500,0.028520,0.444433,0.096214,-0.181993,2.032018,-0.824580,-1.304218,236.052811,237.149521,10.000000,28.710220,77.206365,5.000000,284.765625,1.340000,194.345581
462463463.572307,-0.557114,0.447556,-0.093521,-1.621980,-0.206221,1.028657,-0.977530,0.204762,0.050078,0.455405,0.190731,-0.177260,1.705168,-1.294301,-1.293495,234.389236,235.485947,10.000000,28.710220,77.206365,5.000000,284.765625,1.340000,194.345581
462463463.605559,-0.588089,0.521866,-0.046860,-1.655630,-0.163209,1.070810,-0.983163,0.162485,0.083606,0.415734,0.301306,-0.158664,0.763883,-1.121605,-1.462233,234.312378,235.409088,10.000000,28.710220,77.206365,5.000000,284.765625,1.340000,194.345581
462463463.639116,-0.605042,0.567337,-0.070084,-1.673752,-0.120927,1.077612,-0.987441,0.120633,0.102023,0.399352,0.401233,-0.148883,-0.398427,-0.206677,-1.186205,235.540527,236.637238,10.000000,28.710220,77.206365,5.000000,284.765625,1.340000,194.345581
462463463.672226,-0.571686,0.679977,-0.120865,-1.672832,-0.090315,1.055728,-0.990744,0.090192,0.101444,0.431067,0.521930,-0.194415,-0.877567,0.126131,-0.644170,237.465103,238.561813,10.000000,28.710220,77.206365,5.000000,284.765625,1.340000,194.345581
462463463.704740,-0.783035,0.702820,-0.257568,-1.684349,-0.076068,1.034906,-0.990687,0.075994,0.112981,0.393885,0.632471,-0.258993,-0.483826,-0.667131,-0.179405,240.157501,241.254211,10.000000,28.710220,77.206365,5.000000,284.765625,1.340000,194.345581
462463463.738737,-0.888947,0.739349,-0.279419,-1.723155,-0.085188,1.028527,-0.984832,0.085085,0.151219,0.095885,0.654264,-0.430638,0.223739,-0.910766,0.516384,240.687927,241.784637,10.000000,28.710220,77.206365,5.000000,284.765625,1.340000,194.345581
462463463.772111,-0.992920,0.608826,-0.330887,-1.750670,-0.113320,1.032173,-0.977556,0.113078,0.177758,-0.014647,0.546239,-0.468087,0.246222,-0.641366,1.099486,240.362289,241.459000,10.000000,28.710220,77.206365,5.000000,284.765625,1.340000,194.345581
462463463.805442,-1.188919,0.621704,-0.192871,-1.764432,-0.156161,1.030877,-0.969370,0.155527,0.190086,-0.181875,0.492254,-0.473121,0.217679,-0.296021,1.389855,237.500671,238.597382,10.000000,28.710220,77.206365,5.000000,284.765625,1.340000,194.345581
462463463.838889,-1.175934,0.568954,-0.166107,-1.773620,-0.200472,1.028695,-0.959885,0.199132,0.197402,-0.216049,0.369823,-0.363509,0.133872,-0.277578,1.326809,235.216415,236.313126,10.000000,28.710220,77.206365,5.000000,284.765625,1.340000,194.345581
462463463.872152,-1.053757,0.406738,-0.141464,-1.775970,-0.241039,1.023301,-0.950722,0.238712,0.197847,-0.118400,0.186856,-0.349550,0.133636,0.135153,1.171411,230.560089,231.656799,10.000000,28.710220,77.206365,5.000000,284.765625,1.340000,194.345581
462463463.905559,-1.240448,0.428497,-0.078293,-1.768218,-0.273156,1.028451,-0.944220,0.269772,0.188870,-0.158777,0.112751,-0.283490,0.579500,0.235993,0.680922,228.965256,230.061966,10.000000,28.710220,77.206365,5.000000,284.765625,1.340000,194.345581
462463463.938796,-1.259201,0.359848,-0.032349,-1.762528,-0.294549,1.046581,-0.939398,0.290308,0.182352,-0.347086,0.137197,-0.254862,0.633142,-0.176965,0.390200,226.451065,227.547775,10.000000,28.710220,77.206365,5.000000,284.765625,1.340000,194.345581
462463463.972230,-1.170135,0.253937,-0.020477,-1.762098,-0.296189,1.055245,-0.939008,0.291878,0.181858,-0.283542,-0.025657,-0.216404,-0.132867,0.104021,-0.252869,224.175812,225.272522,10.000000,28.710220,77.206365,5.000000,284.765625,1.340000,194.345581
462463464.005579,-0.797363,0.154633,0.015106,-1.747721,-0.279934,1.038322,-0.946071,0.276293,0.169152,-0.010670,-0.088182,-0.158547,-0.829095,1.027734,-0.452839,224.907562,226.004272,10.000000,28.710220,77.206365,5.000000,284.765625,1.340000,194.345581
462463464.038859,-0.625107,0.146606,-0.003525,-1.709723,-0.260099,1.011769,-0.957054,0.257177,0.133822,0.214668,-0.113088,-0.128482,-0.805537,1.497195,-0.537859,227.374023,228.470734,10.000000,28.710220,77.206365,5.000000,284.765625,1.340000,194.345581
462463464.072161,-0.591736,0.148056,-0.019592,-1.665484,-0.224404,0.998796,-0.970560,0.222526,0.092176,0.378824,-0.074470,-0.111768,0.015897,0.303067,-0.760027,230.695312,231.792023,10.000000,28.710220,77.206365,5.000000,284.765625,1.340000,194.345581
462463464.105715,-0.537354,0.179260,-0.035721,-1.669218,-0.205488,1.010482,-0.974224,0.204045,0.096195,0.426174,-0.045674,-0.129276,0.478870,-0.448402,-0.450093,233.712021,234.808731,10.000000,28.710220,77.206365,5.000000,284.765625,1.340000,194.345581
462463464.138947,-0.584961,0.278641,-0.043152,-1.676565,-0.201574,1.020707,-0.974278,0.200211,0.103434,0.448597,0.001556,-0.146006,0.638414,-0.644317,-0.237077,234.356079,235.452789,10.000000,28.710220,77.206365,5.000000,284.765625,1.340000,194.345581
