Timestamp,Accel_X,Accel_Y,Accel_Z,Roll,Pitch,Yaw,Quat.X,Quat.Y,Quat.Z,Quat.W,RM11,RM12,RM13,RM21,RM22,RM23,RM31,RM32,RM33,GravAcc_X,GravAcc_Y,GravAcc_Z,UserAcc_X,UserAcc_Y,UserAcc_Z,RotRate_X,RotRate_Y,RotRate_Z,MagHeading,TrueHeading,HeadingAccuracy,MagX,MagY,MagZ,Lat,Long,LocAccuracy,Course,Speed,Altitude
462520305.392464,0.056320,-0.821594,-0.540482,-0.078161,0.239014,1.201051,0.120209,0.035314,0.556774,0.821161,0.377511,0.922893,0.075862,-0.905912,0.351104,0.236745,0.191855,-0.158098,0.968606,-0.075862,-0.236745,-0.968606,0.065501,0.011999,0.054009,0.106853,0.232014,0.382717,88.962410,90.062546,-1.000000,-42.125378,-3.534706,-24.340141,28.709417,77.206209,65.000000,-1.000000,-1.000000,205.574524
462520305.426406,0.019760,-0.841064,-0.547974,-0.078161,0.239014,1.201051,0.120209,0.035314,0.556774,0.821161,0.377511,0.922893,0.075862,-0.905912,0.351104,0.236745,0.191855,-0.158098,0.968606,-0.075862,-0.236745,-0.968606,0.065501,0.011999,0.054009,0.106853,0.232014,0.382717,88.962410,90.062546,-1.000000,-42.125378,-3.534706,-24.340141,28.709417,77.206209,65.000000,-1.000000,-1.000000,205.574524
462520305.459789,0.040024,-0.828110,-0.556076,-0.078161,0.239014,1.201051,0.120209,0.035314,0.556774,0.821161,0.377511,0.922893,0.075862,-0.905912,0.351104,0.236745,0.191855,-0.158098,0.968606,-0.075862,-0.236745,-0.968606,0.065501,0.011999,0.054009,0.106853,0.232014,0.382717,88.962410,90.062546,-1.000000,-42.125378,-3.534706,-24.340141,28.709417,77.206209,65.000000,-1.000000,-1.000000,205.574524
462520305.492666,0.015106,-0.856155,-0.502426,-0.000807,0.000778,0.000245,0.000389,-0.000404,0.000122,1.000000,1.000000,0.000245,0.000807,-0.000245,1.000000,0.000778,-0.000807,-0.000779,0.999999,-0.000807,-0.000778,-0.999999,0.000000,0.000000,0.000000,0.144812,-0.150132,0.045553,88.962410,90.062546,-1.000000,-42.125378,-3.534706,-24.340141,28.709417,77.206209,65.000000,-1.000000,-1.000000,205.574524
462520305.526396,0.034454,-0.862778,-0.491058,0.097419,0.993938,-0.055266,0.477199,0.029627,-0.001053,0.878295,0.998242,0.026425,-0.053048,0.030126,0.544561,0.838180,0.051037,-0.838305,0.542807,0.053048,-0.838180,-0.542807,-0.035836,-0.020920,0.051398,0.003140,-0.055889,-0.117506,88.962410,90.062546,-1.000000,-42.125378,-3.534706,-24.340141,28.709417,77.206209,65.000000,-1.000000,-1.000000,205.574524
462520305.559814,0.029572,-0.836517,-0.528763,0.098425,0.994607,-0.056711,0.477514,0.029708,-0.001429,0.878121,0.998231,0.025862,-0.053539,0.030882,0.543957,0.838545,0.050809,-0.838715,0.542196,0.053539,-0.838545,-0.542196,-0.026424,0.003508,0.021795,-0.039341,0.062421,-0.060432,88.962410,90.062546,-1.000000,-42.125378,-3.534706,-24.340141,28.709417,77.206209,65.000000,-1.000000,-1.000000,205.574524
462520305.593073,0.061432,-0.840134,-0.529175,0.096757,0.995963,-0.056069,0.478098,0.029096,-0.001508,0.877823,0.998302,0.025175,-0.052524,0.030468,0.542840,0.839283,0.049641,-0.839459,0.541152,0.052524,-0.839283,-0.541152,-0.008411,-0.005276,0.006209,0.053585,-0.108210,0.009089,88.962410,90.062546,-1.000000,-42.125378,-3.534706,-24.340141,28.709417,77.206209,65.000000,-1.000000,-1.000000,205.574524
462520305.626394,0.046188,-0.837677,-0.542892,0.096026,0.999695,-0.058768,0.479770,0.028039,-0.002762,0.876942,0.998412,0.022060,-0.051828,0.031749,0.539625,0.841306,0.046527,-0.841616,0.538068,0.051828,-0.841306,-0.538068,0.004660,0.001127,0.002790,0.129229,-0.036580,-0.070348,88.962410,90.062546,-1.000000,-42.125378,-3.534706,-24.340141,28.709417,77.206209,65.000000,-1.000000,-1.000000,205.574524
462520305.659762,0.037750,-0.845520,-0.522354,0.097633,1.000281,-0.062253,0.480078,0.027893,-0.003888,0.876774,0.998414,0.019965,-0.052645,0.033599,0.539020,0.841623,0.045179,-0.842057,0.537494,0.052645,-0.841623,-0.537494,-0.039339,0.008050,-0.001828,-0.032891,-0.017343,-0.052252,88.962410,90.062546,-1.000000,-42.125378,-3.534706,-24.340141,28.709417,77.206209,65.000000,-1.000000,-1.000000,205.574524
462520305.693092,0.041794,-0.842529,-0.531357,0.092470,1.001815,-0.058655,0.480691,0.026456,-0.003508,0.876484,0.998576,0.019286,-0.049749,0.031584,0.537848,0.842450,0.043005,-0.842821,0.536472,0.049749,-0.842450,-0.536472,0.000635,-0.009311,0.020405,-0.026487,-0.017249,-0.022859,88.962410,90.062546,-1.000000,-42.125378,-3.534706,-24.340141,28.709406,77.206353,65.000000,-1.000000,-1.000000,205.549011
462520305.726470,0.024719,-0.844360,-0.549164,0.092756,1.007166,-0.060706,0.483058,0.025958,-0.004190,0.875193,0.998617,0.017744,-0.049485,0.032413,0.533275,0.845321,0.041389,-0.845756,0.531962,0.049485,-0.845321,-0.531962,-0.017121,0.001464,-0.011327,0.184187,-0.040656,-0.085640,88.962410,90.062546,-1.000000,-42.125378,-3.534706,-24.340141,28.709406,77.206353,65.000000,-1.000000,-1.000000,205.549011
462520305.759775,0.039536,-0.855652,-0.540695,0.089830,1.011372,-0.060803,0.484890,0.024552,-0.004826,0.874217,0.998748,0.015372,-0.047608,0.032248,0.529718,0.847561,0.038248,-0.848035,0.528559,0.047608,-0.847561,-0.528559,-0.017533,-0.004795,-0.025839,0.192815,-0.005030,-0.058986,88.962410,90.062546,-1.000000,-42.125378,-3.534706,-24.340141,28.709406,77.206353,65.000000,-1.000000,-1.000000,205.549011
462520305.793103,0.035995,-0.852066,-0.506470,0.090139,1.013514,-0.062439,0.485845,0.024238,-0.005408,0.873692,0.998766,0.014103,-0.047608,0.033001,0.527851,0.848695,0.037100,-0.849220,0.526735,0.047608,-0.848695,-0.526735,-0.002061,-0.005568,0.002092,0.051939,-0.048640,-0.066913,88.962410,90.062546,-1.000000,-42.125378,-3.534706,-24.340141,28.709406,77.206353,65.000000,-1.000000,-1.000000,205.549011
462520305.826616,0.012680,-0.856949,-0.530228,0.095520,1.019871,-0.072191,0.488751,0.024045,-0.008172,0.872054,0.998710,0.009251,-0.049926,0.037758,0.522112,0.852041,0.033950,-0.852827,0.521089,0.049926,-0.852041,-0.521089,-0.024627,-0.001445,0.004473,0.202359,-0.029401,-0.233037,88.962410,90.062546,-1.000000,-42.125378,-3.534706,-24.340141,28.709406,77.206353,65.000000,-1.000000,-1.000000,205.549011
462520305.859883,0.060898,-0.855972,-0.518066,0.096494,1.024750,-0.076517,0.490928,0.023275,-0.009672,0.870836,0.998730,0.006007,-0.050033,0.039697,0.517793,0.854585,0.031040,-0.855485,0.516896,0.050033,-0.854585,-0.516896,-0.037780,-0.004623,-0.022334,0.182801,-0.028645,-0.084124,88.962410,90.062546,-1.000000,-42.125378,-3.534706,-24.340141,28.709406,77.206353,65.000000,-1.000000,-1.000000,205.549011
462520305.893110,0.045441,-0.850693,-0.514908,0.097199,1.030195,-0.080609,0.493342,0.022417,-0.011111,0.869476,0.998748,0.002796,-0.049945,0.041440,0.512980,0.857399,0.028018,-0.858396,0.512222,0.049945,-0.857399,-0.512222,0.031506,0.001412,0.008575,0.214204,-0.121998,-0.071964,88.962410,90.062546,-1.000000,-42.125378,-3.534706,-24.340141,28.709406,77.206353,65.000000,-1.000000,-1.000000,205.549011
462520305.926564,0.021805,-0.859039,-0.517761,0.106858,1.040247,-0.094110,0.497909,0.022946,-0.014248,0.866809,0.998541,-0.001850,-0.053968,0.047550,0.503768,0.862529,0.025591,-0.863837,0.503121,0.053968,-0.862529,-0.503121,-0.032163,0.003490,-0.014640,0.165189,0.000843,-0.089410,88.962410,90.062546,-1.000000,-42.125378,-3.534706,-24.340141,28.709406,77.206353,65.000000,-1.000000,-1.000000,205.549011
462520305.959775,0.087479,-0.860657,-0.473312,0.107002,1.041515,-0.094348,0.498460,0.022907,-0.014271,0.866492,0.998543,-0.001894,-0.053924,0.047567,0.502668,0.863170,0.025471,-0.864478,0.502025,0.053924,-0.863170,-0.502025,0.010270,0.009151,0.015087,0.008516,-0.049370,0.027038,88.962410,90.062546,-1.000000,-42.125378,-3.534706,-24.340141,28.709406,77.206353,65.000000,-1.000000,-1.000000,205.549011
462520305.993104,0.045212,-0.861542,-0.498093,0.108512,1.044202,-0.099590,0.499691,0.022160,-0.016069,0.865771,0.998501,-0.005677,-0.054430,0.049970,0.500101,0.864524,0.022313,-0.865948,0.499636,0.054430,-0.864524,-0.499636,0.032713,0.023780,0.024843,0.130531,-0.130347,-0.105537,88.962410,90.062546,-1.000000,-42.125378,-3.534706,-24.340141,28.709406,77.206353,65.000000,-1.000000,-1.000000,205.549011
462520306.026440,0.023132,-0.857697,-0.505325,0.108702,1.047073,-0.104816,0.500987,0.020833,-0.018179,0.865013,0.998471,-0.010575,-0.054256,0.052323,0.497363,0.865963,0.017827,-0.867478,0.497156,0.054256,-0.865963,-0.497156,-0.031124,0.008267,-0.008170,0.057042,-0.119993,-0.056074,88.962410,90.062546,-1.000000,-42.125378,-3.534706,-24.340141,28.709406,77.206353,65.000000,-1.000000,-1.000000,205.549011
462520306.059768,0.068497,-0.867981,-0.486755,0.106852,1.046858,-0.106018,0.500889,0.019739,-0.019170,0.865074,0.998486,-0.013393,-0.053356,0.052941,0.497485,0.865855,0.014948,-0.867369,0.497441,0.053356,-0.865855,-0.497441,0.007481,-0.002309,0.008885,-0.036529,-0.043242,-0.012412,4.097912,5.198045,10.000000,0.233057,-7.962029,-50.145100,28.709406,77.206353,65.000000,-1.000000,-1.000000,205.549011
462520306.093143,0.050171,-0.866516,-0.486588,0.108251,1.046072,-0.108333,0.500587,0.019794,-0.019850,0.865232,0.998428,-0.014532,-0.054125,0.054166,0.498038,0.865462,0.014379,-0.867034,0.498042,0.054125,-0.865462,-0.498042,0.007474,-0.002824,0.015285,-0.030317,-0.042120,-0.033171,4.169418,5.269551,10.000000,-0.008126,-7.927689,-50.443596,28.709406,77.206353,65.000000,-1.000000,-1.000000,205.549011
462520306.126439,0.025162,-0.871307,-0.480835,0.107728,1.045579,-0.112922,0.500413,0.018437,-0.021984,0.865312,0.998354,-0.019594,-0.053910,0.056499,0.498208,0.865215,0.009905,-0.866836,0.498495,0.053910,-0.865215,-0.498495,0.004866,-0.009007,0.012045,0.000959,-0.135826,-0.085663,4.007498,5.107631,10.000000,0.164151,-8.030708,-50.609428,28.709406,77.206353,65.000000,-1.000000,-1.000000,205.549011
462520306.159809,0.050034,-0.869202,-0.495087,0.106090,1.044570,-0.115976,0.499986,0.017003,-0.023753,0.865541,0.998293,-0.024115,-0.053187,0.058121,0.498899,0.864709,0.005682,-0.866324,0.499450,0.053187,-0.864709,-0.499450,-0.013819,-0.005805,0.005706,-0.067658,-0.094967,-0.063293,3.863074,4.963207,10.000000,0.267518,-7.584305,-50.775261,28.709406,77.206353,65.000000,-1.000000,-1.000000,205.549011
462520306.193147,0.056686,-0.863892,-0.495911,0.106942,1.042454,-0.118658,0.499106,0.016784,-0.024781,0.866024,0.998208,-0.026167,-0.053807,0.059675,0.500558,0.863644,0.004335,-0.865307,0.501223,0.053807,-0.863644,-0.501223,0.007457,0.004620,0.022280,-0.087556,-0.024813,-0.048317,4.201915,5.302048,10.000000,-0.077035,-7.859016,-51.239586,28.709406,77.206353,65.000000,-1.000000,-1.000000,205.549011
462520306.226835,0.038376,-0.860947,-0.509796,0.108879,1.042675,-0.123570,0.499267,0.016388,-0.026416,0.865890,0.998067,-0.029382,-0.054757,0.062110,0.500070,0.863755,0.002004,-0.865487,0.500928,0.054757,-0.863755,-0.500928,-0.010812,0.002168,-0.002566,0.051094,-0.125016,-0.079191,4.646063,5.746196,10.000000,-0.283767,-8.065048,-51.438587,28.709406,77.206353,65.000000,-1.000000,-1.000000,205.549011
462520306.259918,0.050003,-0.865417,-0.506104,0.105751,1.044307,-0.126798,0.499953,0.014161,-0.028531,0.865467,0.997971,-0.035226,-0.053041,0.063546,0.498467,0.864577,-0.004016,-0.866193,0.499694,0.053041,-0.864577,-0.499694,-0.010591,-0.005418,-0.013902,0.089528,-0.137755,-0.110300,4.907901,6.008035,10.000000,-0.524954,-7.893356,-51.538086,28.709406,77.206353,65.000000,-1.000000,-1.000000,205.549011
462520306.292710,0.046188,-0.864838,-0.499313,0.107587,1.044840,-0.133173,0.500253,0.013340,-0.030809,0.865228,0.997746,-0.039967,-0.053909,0.066661,0.497595,0.864844,-0.007741,-0.866488,0.499138,0.053909,-0.864844,-0.499138,-0.032181,-0.006463,-0.004891,0.014413,-0.051626,-0.114015,5.273167,6.373301,10.000000,-0.731686,-7.275261,-51.339092,28.709406,77.206353,65.000000,-1.000000,-1.000000,205.549011
462520306.326457,0.031219,-0.865356,-0.510742,0.111916,1.048692,-0.144128,0.502052,0.012298,-0.034303,0.864069,0.997344,-0.046931,-0.055697,0.071629,0.493535,0.866772,-0.013191,-0.868459,0.495586,0.055697,-0.866772,-0.495586,0.008436,-0.005131,-0.009755,0.192792,-0.134899,-0.153262,5.233122,6.333256,10.000000,-0.593865,-7.069229,-51.206429,28.709406,77.206353,65.000000,-1.000000,-1.000000,205.549011
462520306.359836,0.035461,-0.873474,-0.506577,0.115373,1.056196,-0.154754,0.505397,0.010765,-0.037693,0.861996,0.996927,-0.054101,-0.056659,0.075864,0.486305,0.870489,-0.019541,-0.872113,0.488915,0.056659,-0.870489,-0.488915,-0.021198,-0.002985,-0.017662,0.362124,-0.188837,-0.192625,5.424057,6.524191,10.000000,-0.697232,-7.172249,-51.106926,28.709406,77.206353,65.000000,-1.000000,-1.000000,205.549011
462520306.393225,0.051651,-0.870773,-0.470825,0.118052,1.066324,-0.166528,0.509841,0.008431,-0.041621,0.859220,0.996393,-0.062926,-0.056927,0.080119,0.476659,0.875430,-0.027953,-0.876833,0.479981,0.056927,-0.875430,-0.479981,-0.001141,-0.006986,-0.005706,0.298731,-0.213207,-0.124207,5.848493,6.948626,10.000000,-0.800598,-8.030693,-50.941093,28.709406,77.206353,65.000000,-1.000000,-1.000000,205.549011
462520306.426547,0.068695,-0.860092,-0.453644,0.119687,1.074539,-0.175327,0.513413,0.006457,-0.044590,0.856958,0.995940,-0.069793,-0.056852,0.083053,0.468839,0.879371,-0.034720,-0.880522,0.472732,0.056852,-0.879371,-0.472732,0.005236,0.014716,0.012267,0.257747,-0.220143,-0.080533,6.432838,7.532971,10.000000,-1.248517,-8.614433,-50.841595,28.709406,77.206353,65.000000,-1.000000,-1.000000,205.549011
462520306.459870,0.061325,-0.864868,-0.445908,0.115646,1.083833,-0.182760,0.517287,0.002316,-0.048365,0.854441,0.995311,-0.080254,-0.053995,0.085046,0.460151,0.883758,-0.046079,-0.884206,0.464818,0.053995,-0.883758,-0.464818,0.007330,0.018890,0.018911,0.281926,-0.403029,-0.066331,6.848237,7.948370,10.000000,-1.524158,-8.820465,-50.907928,28.709406,77.206353,65.000000,-1.000000,-1.000000,205.549011
462520306.493214,0.052948,-0.859833,-0.425308,0.112031,1.087759,-0.186548,0.518864,-0.000420,-0.050730,0.853350,0.994853,-0.087017,-0.051926,0.086144,0.456413,0.885588,-0.053361,-0.885503,0.461559,0.051926,-0.885588,-0.461560,0.006179,0.021971,0.020169,0.220911,-0.453120,-0.076062,7.108024,8.208158,10.000000,-1.834256,-9.060822,-51.339088,28.709406,77.206353,65.000000,-1.000000,-1.000000,205.549011
462520306.526484,0.024139,-0.874603,-0.455719,0.101546,1.095193,-0.196805,0.521707,-0.007963,-0.057475,0.851149,0.993266,-0.106148,-0.046416,0.089532,0.449036,0.889017,-0.073525,-0.887186,0.455516,0.046416,-0.889017,-0.455516,-0.014754,0.008279,0.016002,0.170731,-0.315416,-0.070489,8.079842,9.179975,10.000000,-2.902368,-9.575897,-51.372253,28.709406,77.206353,65.000000,-1.000000,-1.000000,205.549011
462520306.559838,0.051224,-0.892014,-0.454376,0.092083,1.102603,-0.199190,0.524547,-0.013014,-0.060621,0.849121,0.992311,-0.116602,-0.041496,0.089296,0.442352,0.892385,-0.085698,-0.889229,0.449363,0.041496,-0.892385,-0.449363,0.007897,0.004873,-0.000070,0.259837,-0.424537,0.021557,8.270637,9.370770,10.000000,-3.040188,-10.056633,-51.040596,28.709406,77.206353,65.000000,-1.000000,-1.000000,205.549011
462520306.593044,0.040802,-0.893860,-0.460022,0.083359,1.108471,-0.202934,0.526721,-0.018016,-0.064238,0.847416,0.991098,-0.127852,-0.037138,0.089895,0.436878,0.895018,-0.098205,-0.890389,0.444482,0.037138,-0.895018,-0.444482,0.006640,0.005385,-0.032233,0.203275,-0.338641,-0.031015,9.435260,10.535393,10.000000,-4.383942,-10.571709,-50.742096,28.709406,77.206353,65.000000,-1.000000,-1.000000,205.549011
462520306.626409,0.021774,-0.895050,-0.444916,0.079366,1.110989,-0.209693,0.527582,-0.021625,-0.068042,0.846499,0.989805,-0.138012,-0.035184,0.092376,0.434055,0.896138,-0.108406,-0.890252,0.442379,0.035184,-0.896138,-0.442379,-0.001172,-0.020091,-0.006932,0.014507,-0.262106,-0.105199,10.409785,11.509918,10.000000,-5.279776,-10.983772,-50.609428,28.709406,77.206353,65.000000,-1.000000,-1.000000,205.549011
462520306.659741,0.055267,-0.911804,-0.418610,0.078470,1.108078,-0.215904,0.526255,-0.023480,-0.071037,0.847029,0.988805,-0.145054,-0.034992,0.095629,0.436019,0.894842,-0.114543,-0.888171,0.445009,0.034992,-0.894842,-0.445009,-0.000354,0.004233,0.019868,-0.147726,-0.186421,-0.088891,11.320300,12.420433,10.000000,-6.072247,-10.743416,-50.841591,28.709406,77.206353,65.000000,-1.000000,-1.000000,205.549011
462520306.693081,0.051773,-0.876678,-0.437637,0.075604,1.101833,-0.215887,0.523519,-0.024341,-0.072060,0.848612,0.988430,-0.147788,-0.034138,0.096817,0.441471,0.892037,-0.116762,-0.885021,0.450671,0.034138,-0.892037,-0.450671,-0.000843,0.009393,0.003863,-0.223735,-0.033190,0.040764,11.223919,12.324052,10.000000,-5.865515,-10.674736,-50.974251,28.709406,77.206353,65.000000,-1.000000,-1.000000,205.549011
462520306.726432,0.025116,-0.879990,-0.472549,0.076273,1.096554,-0.216495,0.521305,-0.023921,-0.072378,0.849959,0.988378,-0.147977,-0.034797,0.098095,0.446004,0.889639,-0.116126,-0.882714,0.455337,0.034797,-0.889639,-0.455337,0.020653,0.019735,0.011596,-0.099239,-0.013171,-0.018337,10.878290,11.978423,10.000000,-5.624329,-10.159660,-51.140083,28.709406,77.206353,65.000000,-1.000000,-1.000000,205.549011
462520306.759765,0.020981,-0.886566,-0.481689,0.077580,1.094742,-0.218868,0.520558,-0.023882,-0.073127,0.850353,0.988164,-0.149231,-0.035517,0.099503,0.447343,0.888810,-0.116749,-0.881825,0.456897,0.035517,-0.888810,-0.456897,-0.017192,0.005128,-0.026547,-0.049300,-0.046525,-0.016400,10.879065,11.979198,10.000000,-5.589874,-10.194000,-51.239582,28.709406,77.206353,65.000000,-1.000000,-1.000000,205.549011
462520306.793095,0.064240,-0.880325,-0.425003,0.071545,1.089956,-0.213957,0.518371,-0.024907,-0.072814,0.851686,0.988156,-0.149851,-0.033063,0.098207,0.451978,0.886606,-0.117915,-0.879352,0.461341,0.033063,-0.886606,-0.461341,0.015567,-0.002050,0.011283,-0.226000,-0.025368,0.113788,10.875057,11.975190,10.000000,-5.658786,-10.194000,-51.106915,28.709406,77.206353,65.000000,-1.000000,-1.000000,205.549011
462520306.826441,0.012283,-0.875092,-0.455704,0.064258,1.082352,-0.205160,0.514991,-0.025335,-0.071261,0.853852,0.988560,-0.147788,-0.030132,0.095598,0.459411,0.883064,-0.116663,-0.875842,0.468284,0.030132,-0.883064,-0.468284,0.033008,0.006782,0.043022,-0.247374,0.033578,0.103277,11.273891,12.374024,10.000000,-6.141162,-10.056648,-50.841583,28.709406,77.206353,65.000000,-1.000000,-1.000000,205.549011
462520306.859832,0.021271,-0.874435,-0.443985,0.057466,1.073944,-0.195668,0.511291,-0.025378,-0.069271,0.856235,0.989115,-0.144575,-0.027377,0.092673,0.467566,0.879087,-0.114293,-0.872055,0.475874,0.027377,-0.879087,-0.475874,-0.013445,0.002637,0.025130,-0.334436,0.038034,0.170874,10.830976,11.931108,10.000000,-6.244528,-8.786148,-50.808418,28.709406,77.206353,65.000000,-1.000000,-1.000000,205.549011
462520306.893221,0.040176,-0.839279,-0.398453,0.040197,1.061228,-0.175334,0.505535,-0.027032,-0.065369,0.859901,0.989992,-0.139753,-0.019603,0.085090,0.480322,0.872955,-0.112583,-0.865887,0.487407,0.019603,-0.872955,-0.487406,0.012441,0.018890,0.072367,-0.543148,0.034043,0.388919,10.655890,11.756023,10.000000,-6.416802,-8.133736,-50.708916,28.709406,77.206353,65.000000,-1.000000,-1.000000,205.549011
462520306.926486,0.002106,-0.809723,-0.424316,0.010963,1.038777,-0.138100,0.495487,-0.029498,-0.057181,0.866229,0.991720,-0.128296,-0.005561,0.069832,0.502445,0.861784,-0.107769,-0.855037,0.507244,0.005561,-0.861784,-0.507244,0.033608,0.016951,0.108959,-0.846771,0.201642,0.713116,8.987739,10.087872,10.000000,-6.037792,-6.451180,-51.140083,28.709406,77.206353,65.000000,-1.000000,-1.000000,205.549011
462520306.960017,0.011490,-0.803802,-0.461594,-0.024461,0.986791,-0.067924,0.472945,-0.026846,-0.035692,0.879959,0.996011,-0.088209,0.013486,0.037423,0.550098,0.834261,-0.081008,-0.830428,0.551205,-0.013486,-0.834261,-0.551205,0.024975,0.030458,0.089611,-1.146395,0.722786,0.610471,7.007774,8.107907,10.000000,-5.452053,-4.631271,-51.173248,28.709406,77.206353,65.000000,-1.000000,-1.000000,205.549011
462520306.993087,-0.052338,-0.835403,-0.562332,-0.021472,0.954630,-0.046602,0.459022,-0.020236,-0.025624,0.887824,0.997868,-0.064077,0.012408,0.026922,0.577284,0.816100,-0.059457,-0.814026,0.577778,-0.012408,-0.816100,-0.577778,-0.033429,-0.009187,0.052006,-0.831427,0.510978,0.290462,5.658128,6.758262,10.000000,-4.694039,-3.669807,-51.703907,28.709406,77.206353,65.000000,-1.000000,-1.000000,205.549011
462520307.026432,-0.008057,-0.865036,-0.631149,-0.024709,0.934743,-0.030663,0.450285,-0.017935,-0.019251,0.892497,0.998615,-0.050515,0.014676,0.018212,0.593746,0.804447,-0.049351,-0.803066,0.593844,-0.014676,-0.804447,-0.593844,-0.009051,-0.062344,-0.028761,-0.487393,0.160071,0.366132,4.317378,5.417511,10.000000,-3.729294,-1.746880,-51.571247,28.709406,77.206353,65.000000,-1.000000,-1.000000,205.549011
462520307.059783,0.013840,-0.787292,-0.655823,-0.047021,0.921374,0.001955,0.444461,-0.020623,-0.009576,0.895510,0.998966,-0.035483,0.028424,-0.001182,0.604725,0.796433,-0.045448,-0.795643,0.604058,-0.028424,-0.796433,-0.604058,0.038754,-0.041061,-0.036063,-0.346256,0.159407,0.810089,2.766450,3.866584,10.000000,-2.833456,-1.128792,-51.504913,28.709406,77.206353,65.000000,-1.000000,-1.000000,205.549011
462520307.093123,-0.051834,-0.792175,-0.687775,-0.066493,0.912689,0.040212,0.440937,-0.020978,0.003392,0.897286,0.999097,-0.012412,0.040639,-0.024588,0.611126,0.791151,-0.034655,-0.791436,0.610269,-0.040639,-0.791151,-0.610269,0.031651,0.010649,-0.057151,-0.074356,0.392698,0.607315,1.737075,2.837208,10.000000,-2.592270,-0.545036,-51.007423,28.709406,77.206353,65.000000,-1.000000,-1.000000,205.549011
462520307.126435,-0.021194,-0.784836,-0.712616,-0.076040,0.919594,0.071058,0.444376,-0.018290,0.014952,0.895529,0.998884,0.010525,0.046047,-0.043035,0.604614,0.795355,-0.019469,-0.796449,0.604392,-0.046047,-0.795355,-0.604392,-0.021519,0.004645,-0.128610,0.432870,0.570946,0.633825,359.669952,0.770086,10.000000,-1.661981,-0.304672,-50.974251,28.709406,77.206353,65.000000,-1.000000,-1.000000,205.549011
462520307.159768,0.024933,-0.758713,-0.606262,-0.087663,0.927375,0.119603,0.448363,-0.012416,0.033841,0.893124,0.997401,0.049315,0.052525,-0.071583,0.595650,0.800048,0.008168,-0.801728,0.597633,-0.052525,-0.800048,-0.597633,0.039586,0.028045,-0.057839,0.159936,1.071485,1.048881,356.805725,357.905853,10.000000,-0.042584,-0.270332,-51.206413,28.709406,77.206353,65.000000,-1.000000,-1.000000,205.549011
462520307.193101,0.012054,-0.784103,-0.590637,-0.090962,0.924210,0.187668,0.447226,0.001212,0.063602,0.892156,0.991907,0.114570,0.054726,-0.112401,0.591888,0.798145,0.059052,-0.797836,0.599975,-0.054726,-0.798145,-0.599975,0.075600,0.022571,0.007247,-0.020704,2.016774,1.405308,352.850861,353.950989,10.000000,2.713837,-1.025772,-51.140083,28.709406,77.206353,65.000000,-1.000000,-1.000000,205.549011
462520307.226452,-0.026413,-0.777039,-0.641769,-0.067646,0.916450,0.258110,0.442331,0.026822,0.100520,0.890797,0.978353,0.202814,0.041141,-0.155358,0.588479,0.793446,0.136711,-0.782662,0.607248,-0.041141,-0.793446,-0.607248,0.043506,0.042119,-0.042303,-0.225866,2.603488,1.252710,349.983826,351.083954,10.000000,4.953427,-1.197464,-50.775257,28.709406,77.206353,65.000000,-1.000000,-1.000000,205.549011
462520307.259812,-0.067902,-0.829666,-0.609726,-0.049500,0.909586,0.315367,0.437185,0.047003,0.130290,0.888642,0.961631,0.272660,0.030384,-0.190464,0.583788,0.789249,0.197458,-0.764754,0.613321,-0.030384,-0.789249,-0.613321,-0.003521,0.001957,-0.020133,-0.015436,0.787244,0.990588,345.977295,347.077423,10.000000,8.295582,-1.712532,-50.012440,28.709406,77.206353,65.000000,-1.000000,-1.000000,205.549011
462520307.293157,-0.062119,-0.814590,-0.537109,-0.093971,0.895563,0.391199,0.432470,0.042526,0.155052,0.887198,0.948301,0.311906,0.058653,-0.238341,0.577857,0.780561,0.209568,-0.754186,0.622322,-0.058653,-0.780561,-0.622322,-0.003466,-0.034029,0.085212,-0.462338,0.650157,1.132471,341.492310,342.592438,10.000000,10.845270,-2.193268,-48.951118,28.709406,77.206353,65.000000,-1.000000,-1.000000,205.549011
462520307.326562,-0.040955,-0.736145,-0.627701,-0.090078,0.868273,0.440218,0.418981,0.051883,0.179400,0.888582,0.930248,0.362299,0.058125,-0.275346,0.584541,0.763214,0.242535,-0.725983,0.643526,-0.058125,-0.763214,-0.643526,0.026860,0.015167,0.029940,-0.874869,1.429382,0.998296,339.552765,340.652893,10.000000,11.465464,-2.261948,-48.951118,28.709406,77.206353,65.000000,-1.000000,-1.000000,205.549011
462520307.359900,-0.117798,-0.787491,-0.526520,-0.085220,0.836650,0.474785,0.403633,0.057614,0.197877,0.891407,0.915051,0.399287,0.057024,-0.306267,0.595851,0.742403,0.262454,-0.696801,0.667522,-0.057024,-0.742403,-0.667522,-0.039457,-0.075697,0.098705,-1.036163,0.661461,0.700928,335.925659,337.025787,10.000000,13.463867,-1.575180,-47.889809,28.709406,77.206353,65.000000,-1.000000,-1.000000,205.549011
462520307.393211,-0.118027,-0.733002,-0.458344,-0.100918,0.785224,0.514492,0.381398,0.052151,0.216098,0.897283,0.901164,0.427583,0.071251,-0.348023,0.615674,0.706983,0.258427,-0.661905,0.703632,-0.071251,-0.706983,-0.703632,-0.046775,-0.026018,0.245288,-1.943704,0.289340,1.273098,333.683685,334.783813,10.000000,15.014353,0.038712,-47.657646,28.709406,77.206353,65.000000,-1.000000,-1.000000,205.549011
462520307.426169,0.009567,-0.600784,-0.365250,-0.120150,0.693026,0.567375,0.341263,0.040674,0.243211,0.907047,0.878388,0.468968,0.092211,-0.413446,0.648776,0.638868,0.239785,-0.599299,0.763770,-0.092211,-0.638868,-0.763770,0.117861,-0.008486,0.388144,-3.137134,0.729779,1.606077,332.022125,333.122253,10.000000,15.841278,1.618271,-47.126991,28.709406,77.206353,65.000000,-1.000000,-1.000000,205.549011
462520307.459882,-0.176636,-0.455185,-0.593231,-0.109139,0.575962,0.604398,0.286307,0.034477,0.270150,0.918618,0.851660,0.516072,0.091350,-0.476588,0.690094,0.544642,0.218034,-0.507386,0.833679,-0.091350,-0.544642,-0.833679,0.019939,0.022074,0.417648,-3.803217,1.379342,0.895437,327.862091,328.962219,10.000000,17.529583,5.979202,-46.032509,28.709406,77.206353,65.000000,-1.000000,-1.000000,205.549011
462520307.493224,-0.409149,-0.403351,-0.676239,-0.077581,0.512561,0.606782,0.252933,0.039872,0.279402,0.925402,0.840690,0.537288,0.067544,-0.496948,0.715919,0.490410,0.215136,-0.445849,0.868870,-0.067544,-0.490410,-0.868870,-0.109092,0.035226,0.275639,-3.810763,2.253946,0.364492,325.576721,326.676849,10.000000,19.769175,11.370285,-43.943047,28.709406,77.206353,65.000000,-1.000000,-1.000000,205.549011
462520307.526487,0.207764,-0.498047,-1.277542,-0.117908,0.411585,0.673202,0.211590,0.012933,0.311385,0.926338,0.805744,0.582369,0.107811,-0.571423,0.716537,0.400062,0.155733,-0.383954,0.910125,-0.107811,-0.400062,-0.910125,0.148873,-0.044624,-0.450212,-1.991285,-1.020736,1.794542,324.189148,325.289276,10.000000,20.423824,13.190201,-43.180229,28.709406,77.206353,65.000000,-1.000000,-1.000000,205.549011
462520307.559745,-0.530609,-0.307114,-0.820694,-0.151874,0.326908,0.692910,0.178034,-0.015308,0.322463,0.929563,0.791567,0.594048,0.143279,-0.604949,0.728643,0.321116,0.086359,-0.340861,0.936139,-0.143279,-0.321116,-0.936139,0.065795,-0.068777,0.082501,-2.502064,-0.967945,0.478580,321.778320,322.878448,10.000000,20.630558,16.005920,-42.052582,28.709406,77.206353,65.000000,-1.000000,-1.000000,205.549011
462520307.593085,-0.308578,-0.347580,-1.212418,-0.187370,0.269811,0.713124,0.157841,-0.040127,0.332576,0.928908,0.775567,0.605197,0.179536,-0.630531,0.728959,0.266550,0.030440,-0.319930,0.946952,-0.179536,-0.266550,-0.946952,-0.272215,-0.071036,-0.083032,-1.015118,-0.826966,1.456024,320.064880,321.165009,10.000000,19.527985,18.134888,-41.588257,28.709406,77.206353,65.000000,-1.000000,-1.000000,205.549011
462520307.626410,-0.002670,-0.255127,-1.227982,-0.215457,0.236753,0.748777,0.148328,-0.056433,0.349221,0.923504,0.749721,0.628272,0.207830,-0.661754,0.712088,0.234548,-0.000634,-0.313378,0.949628,-0.207830,-0.234548,-0.949628,0.341619,-0.002070,-0.405581,-0.828966,-0.492227,0.658652,319.035645,320.135773,10.000000,19.148975,18.924667,-41.356098,28.709406,77.206353,65.000000,-1.000000,-1.000000,205.549011
462520307.659748,-0.410065,-0.238983,-1.031845,-0.232485,0.212633,0.750891,0.140347,-0.068644,0.350706,0.923361,0.744587,0.628389,0.225207,-0.666925,0.714616,0.211034,-0.028325,-0.307329,0.951181,-0.225207,-0.211034,-0.951181,-0.291913,-0.037043,-0.076879,-0.578385,-0.429066,0.297589,318.214111,319.314240,10.000000,18.873333,20.572891,-40.891777,28.709406,77.206353,65.000000,-1.000000,-1.000000,205.549011
462520307.693075,-0.183548,-0.255356,-0.914169,-0.251969,0.180937,0.765286,0.129870,-0.082623,0.358369,0.920804,0.729491,0.638514,0.245242,-0.681435,0.709411,0.179951,-0.059076,-0.298389,0.952614,-0.245242,-0.179951,-0.952614,-0.010587,-0.091244,-0.058372,-1.048198,-0.842313,0.866650,317.464050,318.564178,10.000000,18.976704,21.637375,-40.460617,28.709406,77.206353,65.000000,-1.000000,-1.000000,205.549011
462520307.726430,-0.134033,-0.110886,-0.820450,-0.289823,0.129206,0.787184,0.114262,-0.108586,0.370087,0.915526,0.702489,0.652835,0.283401,-0.702464,0.699959,0.128847,-0.114253,-0.289593,0.950307,-0.283401,-0.128847,-0.950307,0.165877,-0.016081,0.106083,-1.759153,-0.945587,1.141632,315.855591,316.955719,10.000000,17.977503,22.907883,-40.361115,28.709406,77.206353,65.000000,-1.000000,-1.000000,205.549011
462520307.759765,-0.272308,-0.063675,-0.730957,-0.305483,0.051164,0.796540,0.082290,-0.130389,0.379597,0.912213,0.677810,0.671087,0.300360,-0.714006,0.698269,0.051142,-0.175412,-0.249124,0.952454,-0.300360,-0.051142,-0.952454,0.079138,-0.145773,0.263291,-2.278138,-0.310728,0.781192,315.597961,316.698090,10.000000,17.667404,23.835007,-39.863625,28.709406,77.206353,65.000000,-1.000000,-1.000000,205.549011
462520307.793126,-0.276611,0.043182,-1.017822,-0.327716,-0.008596,0.797936,0.059461,-0.151960,0.383907,0.908839,0.659047,0.679748,0.321869,-0.715890,0.698160,-0.008596,-0.230559,-0.224758,0.946745,-0.321869,0.008596,-0.946745,0.016831,0.014704,0.107313,-1.355910,-0.819045,0.602981,313.877319,314.977448,10.000000,17.564037,25.792282,-39.100800,28.709406,77.206353,65.000000,-1.000000,-1.000000,205.549011
462520307.826470,-0.339127,-0.002182,-1.151688,-0.357346,-0.039960,0.800563,0.051134,-0.171304,0.386667,0.904726,0.642287,0.682137,0.349510,-0.717175,0.695747,-0.039950,-0.270422,-0.225000,0.936081,-0.349510,0.039950,-0.936081,0.072898,0.003233,-0.081742,-0.784809,-0.641507,0.327410,312.992432,314.092560,10.000000,17.357307,27.577850,-38.172134,28.709406,77.206353,65.000000,-1.000000,-1.000000,205.549011
462520307.859877,-0.228104,0.033493,-0.921036,-0.365145,-0.066615,0.807914,0.041212,-0.179726,0.391872,0.901353,0.628269,0.691616,0.356292,-0.721244,0.689475,-0.066566,-0.291693,-0.215152,0.932000,-0.356292,0.066566,-0.932000,-0.001511,-0.062874,-0.137061,-0.549926,-0.108377,0.838745,312.464905,313.565033,10.000000,17.426218,27.646530,-37.641479,28.709406,77.206353,65.000000,-1.000000,-1.000000,205.549011
462520307.893308,-0.308945,-0.031662,-1.172485,-0.353089,-0.091169,0.838584,0.030452,-0.178512,0.407680,0.894988,0.603862,0.718865,0.344362,-0.740609,0.665740,-0.091042,-0.294702,-0.200060,0.934412,-0.344362,0.091042,-0.934412,0.164232,-0.071008,0.003275,-0.411693,1.379763,1.086060,310.715729,311.815857,10.000000,18.494331,27.543503,-36.878662,28.709406,77.206353,65.000000,-1.000000,-1.000000,205.549011
462520307.925829,-0.332520,0.229401,-1.108673,-0.329937,-0.104887,0.861521,0.021494,-0.170605,0.419149,0.891485,0.590416,0.739996,0.322203,-0.754664,0.647705,-0.104694,-0.286166,-0.181342,0.940864,-0.322203,0.104694,-0.940864,0.013258,-0.136356,-0.231622,-0.010324,0.304093,0.633795,308.887604,309.987732,10.000000,20.182636,27.028412,-36.049515,28.709406,77.206353,65.000000,-1.000000,-1.000000,205.549011
462520307.959673,-0.414932,0.151199,-0.925476,-0.320406,-0.114914,0.872681,0.015927,-0.168292,0.424828,0.889351,0.582398,0.750281,0.312875,-0.761003,0.638535,-0.114661,-0.285810,-0.171320,0.942848,-0.312875,0.114661,-0.942848,-0.100013,0.021447,-0.008980,-0.170751,0.124843,0.263466,308.474701,309.574829,10.000000,20.871742,27.303116,-35.651527,28.709406,77.206353,65.000000,-1.000000,-1.000000,205.549011
462520307.993231,-0.311752,0.074738,-0.941620,-0.314365,-0.120609,0.883597,0.012998,-0.166700,0.430055,0.887183,0.574527,0.758743,0.306966,-0.767410,0.629767,-0.120317,-0.284606,-0.166444,0.944084,-0.306966,0.120317,-0.944084,-0.009623,0.006316,0.031380,0.067822,0.200773,0.431677,307.602844,308.702972,10.000000,21.078470,27.028442,-35.717857,28.709406,77.206353,65.000000,-1.000000,-1.000000,205.549011
462520308.026561,-0.290573,0.088074,-1.002899,-0.309518,-0.120225,0.899544,0.013439,-0.164368,0.437128,0.884150,0.563805,0.768556,0.302401,-0.777391,0.617477,-0.119935,-0.278902,-0.167464,0.945605,-0.302401,0.119935,-0.945605,0.000429,-0.039369,-0.004575,0.124139,0.043142,0.378777,306.444275,307.544403,10.000000,22.008762,26.513367,-35.883698,28.709406,77.206353,65.000000,-1.000000,-1.000000,205.549011
462520308.059927,-0.321701,0.114166,-0.873383,-0.298588,-0.121155,0.907839,0.011297,-0.159684,0.440911,0.883159,0.560196,0.775182,0.292015,-0.782398,0.610939,-0.120858,-0.272091,-0.160767,0.948747,-0.292015,0.120858,-0.948747,0.002144,0.019904,0.024949,0.057692,0.492945,0.215183,305.794006,306.894135,10.000000,22.491135,26.101318,-35.883698,28.709406,77.206353,65.000000,-1.000000,-1.000000,205.549011
462520308.093219,-0.239975,0.121902,-0.955353,-0.278442,-0.118929,0.912727,0.008215,-0.150286,0.443054,0.883770,0.562234,0.780647,0.272917,-0.785586,0.607271,-0.118649,-0.258358,-0.147691,0.954693,-0.272917,0.118649,-0.954693,-0.008104,-0.009076,0.066067,0.104125,0.666087,0.047889,304.945801,306.045929,10.000000,23.524794,25.483231,-35.485703,28.709406,77.206353,65.000000,-1.000000,-1.000000,205.549011
462520308.126579,-0.248596,0.140213,-0.943954,-0.256293,-0.116306,0.918510,0.004883,-0.139913,0.445561,0.884238,0.563800,0.786597,0.251784,-0.789329,0.602904,-0.116044,-0.243081,-0.133315,0.960801,-0.251784,0.116044,-0.960801,0.022673,0.025756,0.024674,0.123398,0.662069,0.223754,304.781128,305.881256,10.000000,24.489538,25.277206,-34.358047,28.709406,77.206353,65.000000,-1.000000,-1.000000,205.549011
462520308.159868,-0.249954,0.086136,-0.920395,-0.226121,-0.114804,0.927560,-0.000598,-0.126236,0.449533,0.884299,0.563969,0.795194,0.222723,-0.794892,0.595840,-0.114552,-0.223798,-0.112437,0.968128,-0.222723,0.114552,-0.968128,-0.016535,-0.050206,0.005909,0.110035,1.073368,0.243948,304.481720,305.581848,10.000000,25.247553,25.139847,-34.159050,28.709406,77.206353,65.000000,-1.000000,-1.000000,205.549011
462520308.193038,-0.205307,0.142441,-0.882339,-0.180032,-0.111902,0.935950,-0.009221,-0.105227,0.453037,0.885211,0.567369,0.804008,0.177941,-0.800127,0.589344,-0.111669,-0.194651,-0.079018,0.977684,-0.177941,0.111669,-0.977684,-0.060386,0.031825,0.073052,0.173579,1.651200,0.260638,303.935150,305.035278,10.000000,27.383778,24.727783,-32.434418,28.709406,77.206353,65.000000,-1.000000,-1.000000,205.549011
462520308.226608,-0.147903,0.070160,-0.921021,-0.118880,-0.106692,0.946674,-0.020333,-0.077062,0.457226,0.885772,0.570012,0.813129,0.117926,-0.806862,0.581062,-0.106490,-0.155112,-0.034449,0.987296,-0.117926,0.106490,-0.987296,-0.064448,0.004030,0.105933,0.223639,2.061924,0.228867,303.503357,304.603485,10.000000,29.726734,24.178375,-30.975113,28.709406,77.206353,65.000000,-1.000000,-1.000000,205.549011
462520308.260072,-0.057571,0.201492,-0.832962,-0.017328,-0.041572,0.948627,-0.014533,-0.017198,0.456772,0.889299,0.582127,0.812914,0.017312,-0.811914,0.582296,-0.041560,-0.043865,0.010137,0.998986,-0.017312,0.041560,-0.998986,-0.040259,0.159932,0.166024,2.145939,2.375115,-0.154852,302.770294,303.870422,10.000000,31.070486,23.457275,-30.079636,28.709406,77.206353,65.000000,-1.000000,-1.000000,205.549011
462520308.293231,0.013519,0.042648,-0.964417,0.062484,0.024220,0.937013,-0.003305,0.033334,0.451638,0.891572,0.589824,0.805116,-0.062425,-0.805556,0.592024,0.024217,0.056455,0.036003,0.997756,0.062425,-0.024217,-0.997756,-0.077562,0.084947,-0.038926,0.574386,1.478455,-0.475136,302.574829,303.674957,10.000000,33.689087,21.740372,-28.487656,28.709406,77.206353,65.000000,-1.000000,-1.000000,205.549011
462520308.326564,0.032593,0.074310,-1.049484,0.061605,0.022621,0.898638,-0.003193,0.032649,0.434432,0.900107,0.620405,0.781863,-0.061550,-0.782280,0.622517,0.022619,0.056001,0.034117,0.997848,0.061550,-0.022619,-0.997848,-0.028958,0.096929,-0.051637,0.360099,-0.173643,-1.592499,303.762054,304.862183,10.000000,35.480759,20.435547,-27.360016,28.709406,77.206353,65.000000,-1.000000,-1.000000,205.549011
462520308.359970,-0.027725,0.026749,-1.028061,0.046275,0.028247,0.838597,0.003478,0.026878,0.407269,0.912906,0.666820,0.743783,-0.046240,-0.743409,0.668240,0.028243,0.051907,0.015542,0.998531,0.046240,-0.028243,-0.998531,-0.073966,0.054992,-0.029530,0.266838,-0.656965,-1.855582,303.754639,304.854767,10.000000,34.653831,21.740372,-27.360008,28.709406,77.206353,65.000000,-1.000000,-1.000000,205.549011
462520308.393227,-0.008118,0.024002,-1.011124,0.024788,0.033720,0.786002,0.010827,0.017903,0.383072,0.923482,0.705871,0.707907,-0.024772,-0.707132,0.706278,0.033714,0.041362,-0.006281,0.999124,0.024772,-0.033714,-0.999124,-0.056846,0.044395,0.007288,0.187295,-0.749114,-1.476793,305.503815,306.603943,10.000000,33.516808,22.804855,-27.990166,28.709406,77.206353,65.000000,-1.000000,-1.000000,205.549011
462520308.426746,0.035904,-0.004456,-0.987457,-0.002032,0.036535,0.743755,0.017387,0.005691,0.363287,0.931498,0.735980,0.677000,0.002030,-0.676604,0.735440,0.036527,0.023236,-0.028257,0.999331,-0.002030,-0.036527,-0.999331,0.037934,0.032071,0.011873,0.035314,-0.948112,-1.188044,309.997345,311.097473,10.000000,30.898209,25.483215,-29.648468,28.709406,77.206353,65.000000,-1.000000,-1.000000,205.549011
462520308.459541,0.040054,-0.057587,-0.980438,-0.037939,0.038642,0.706611,0.024685,-0.011110,0.345531,0.938017,0.760970,0.647679,0.037901,-0.648776,0.759999,0.038632,-0.003784,-0.053987,0.998534,-0.037901,-0.038632,-0.998534,0.095610,-0.055652,0.014877,0.025276,-1.408109,-1.156697,313.202362,314.302490,10.000000,28.417435,27.200119,-30.842453,28.709406,77.206353,65.000000,-1.000000,-1.000000,205.549011
462520308.493215,-0.007919,-0.008682,-0.904816,-0.070232,0.042365,0.680339,0.031666,-0.026027,0.332665,0.942154,0.777313,0.625195,0.070111,-0.628492,0.776662,0.042352,-0.027975,-0.076985,0.996640,-0.070111,-0.042352,-0.996640,0.047834,0.011606,0.037671,0.007307,-0.079475,-0.359975,314.322449,315.422577,10.000000,27.245956,27.749527,-31.373116,28.709406,77.206353,65.000000,-1.000000,-1.000000,205.549011
462520308.526435,-0.076797,-0.003052,-0.946381,-0.070986,0.042494,0.679236,0.031838,-0.026378,0.332131,0.942327,0.777986,0.624272,0.070862,-0.627632,0.777350,0.042481,-0.028565,-0.077525,0.996581,-0.070862,-0.042481,-0.996581,0.062943,0.033799,0.091765,0.002167,-0.034498,0.005547,316.044678,317.144806,10.000000,25.109732,28.092911,-31.970100,28.709406,77.206353,65.000000,-1.000000,-1.000000,205.549011
462520308.560429,-0.066360,-0.013245,-1.010895,-0.064510,0.043466,0.678768,0.031214,-0.023172,0.331994,0.942480,0.778486,0.624348,0.064405,-0.627242,0.777612,0.043452,-0.022953,-0.074224,0.996977,-0.064405,-0.043452,-0.996977,-0.016619,0.026682,0.002486,-0.009187,-0.002443,-0.001031,316.486633,317.586761,10.000000,24.661814,28.058594,-32.533920,28.709406,77.206353,65.000000,-1.000000,-1.000000,205.549011
462520308.593082,-0.068970,-0.015732,-0.992737,-0.064945,0.041587,0.678758,0.030401,-0.023690,0.332018,0.942485,0.778406,0.624403,0.064843,-0.627284,0.777680,0.041575,-0.024468,-0.073037,0.997029,-0.064843,-0.041575,-0.997029,-0.006522,0.023859,0.024358,-0.006732,-0.001239,-0.001005,316.759033,317.859161,10.000000,24.592905,28.470642,-32.533920,28.709406,77.206353,65.000000,-1.000000,-1.000000,205.549011
462520308.626384,-0.071548,-0.016251,-0.993530,-0.066020,0.039004,0.678742,0.029363,-0.024628,0.332042,0.942486,0.778283,0.624444,0.065922,-0.627337,0.777771,0.038994,-0.026923,-0.071703,0.997063,-0.065922,-0.038994,-0.997063,-0.004497,0.018974,0.008766,-0.004299,-0.003755,-0.005811,316.596344,317.696472,10.000000,25.213099,28.745346,-32.467583,28.709406,77.206353,65.000000,-1.000000,-1.000000,205.549011
462520308.659746,-0.071915,-0.013840,-0.985306,-0.066570,0.036748,0.678628,0.028391,-0.025264,0.332023,0.942505,0.778244,0.624433,0.066476,-0.627302,0.777909,0.036740,-0.028771,-0.070293,0.997111,-0.066476,-0.036740,-0.997111,-0.005225,0.020917,0.007930,0.003145,-0.002555,-0.002082,316.723022,317.823151,10.000000,25.109735,28.917023,-32.368088,28.709406,77.206353,65.000000,-1.000000,-1.000000,205.549011
462520308.693122,-0.069702,-0.014542,-0.986511,-0.066701,0.035709,0.678473,0.027921,-0.025501,0.331968,0.942532,0.778294,0.624357,0.066609,-0.627205,0.778035,0.035702,-0.029533,-0.069564,0.997140,-0.066609,-0.035702,-0.997140,-0.004177,0.020611,0.005975,-0.000630,-0.001330,-0.004553,316.713257,317.813385,10.000000,24.868549,28.539307,-32.467583,28.709406,77.206353,65.000000,-1.000000,-1.000000,205.549011
462520308.726429,-0.071548,-0.014847,-0.989319,-0.067028,0.033875,0.678287,0.027109,-0.025964,0.331910,0.942564,0.778324,0.624285,0.066940,-0.627100,0.778202,0.033868,-0.030949,-0.068338,0.997182,-0.066940,-0.033868,-0.997182,-0.001984,0.018625,0.005727,0.001815,0.002330,-0.004552,316.743866,317.843994,10.000000,24.799637,28.745331,-32.401260,28.709406,77.206353,65.000000,-1.000000,-1.000000,205.549011
462520308.759808,-0.069916,-0.016129,-0.990143,-0.067765,0.031575,0.678239,0.026147,-0.026694,0.331920,0.942567,0.778233,0.624318,0.067680,-0.627110,0.778291,0.031570,-0.032965,-0.067011,0.997208,-0.067680,-0.031570,-0.997208,-0.005151,0.016693,0.007843,-0.003209,-0.002576,-0.004516,316.879974,317.980103,10.000000,24.661814,29.088715,-32.334915,28.709406,77.206353,65.000000,-1.000000,-1.000000,205.549011
462520308.793106,-0.072052,-0.015305,-0.990555,-0.068042,0.029787,0.678178,0.025350,-0.027123,0.331921,0.942576,0.778185,0.624347,0.067959,-0.627097,0.778371,0.029783,-0.034303,-0.065794,0.997243,-0.067959,-0.029783,-0.997243,-0.002963,0.014676,0.007009,0.000480,0.001073,-0.005728,316.948395,318.048523,10.000000,24.903000,29.397766,-31.903763,28.709406,77.206353,65.000000,-1.000000,-1.000000,205.549011
462520308.826543,-0.069504,-0.015549,-0.989883,-0.068478,0.028247,0.678131,0.024696,-0.027585,0.331922,0.942580,0.778134,0.624364,0.068397,-0.627089,0.778436,0.028243,-0.035609,-0.064868,0.997258,-0.068397,-0.028243,-0.997258,-0.002984,0.015013,0.010396,0.000481,-0.000113,0.004060,317.045380,318.145508,10.000000,24.799637,29.432098,-32.003250,28.709406,77.206353,65.000000,-1.000000,-1.000000,205.549011
462520308.859876,-0.070038,-0.013321,-0.990997,-0.068630,0.027036,0.678009,0.024149,-0.027860,0.331885,0.942599,0.778152,0.624324,0.068552,-0.627015,0.778538,0.027033,-0.036493,-0.064018,0.997281,-0.068552,-0.027033,-0.997281,-0.000952,0.011484,0.007398,0.000426,-0.000165,-0.004469,317.022430,318.122559,10.000000,24.937458,28.882690,-32.135918,28.709406,77.206353,65.000000,-1.000000,-1.000000,205.549011
462520308.893806,-0.070068,-0.013931,-0.992615,-0.068944,0.025577,0.677893,0.023512,-0.028252,0.331853,0.942615,0.778151,0.624291,0.068867,-0.626948,0.778641,0.025574,-0.037657,-0.063077,0.997298,-0.068867,-0.025574,-0.997298,-0.003627,0.011170,0.006972,0.000404,0.002306,0.000400,316.970551,318.070679,10.000000,24.971912,28.710999,-32.301750,28.709406,77.206353,65.000000,-1.000000,-1.000000,205.549011
462520308.926485,-0.069107,-0.013168,-0.990280,-0.069077,0.024264,0.677782,0.022914,-0.028534,0.331824,0.942631,0.778158,0.624267,0.069001,-0.626882,0.778736,0.024261,-0.038588,-0.062135,0.997321,-0.069001,-0.024261,-0.997321,0.000169,0.008194,0.007102,-0.002117,0.001083,0.000404,316.817566,317.917694,10.000000,24.661814,27.989883,-32.666580,28.709406,77.206353,65.000000,-1.000000,-1.000000,205.549011
462520308.959886,-0.071869,-0.014359,-0.989716,-0.069146,0.023490,0.677667,0.022559,-0.028697,0.331783,0.942649,0.778193,0.624215,0.069072,-0.626805,0.778822,0.023488,-0.039133,-0.061573,0.997335,-0.069072,-0.023488,-0.997335,-0.002797,0.009130,0.007620,0.000343,0.001041,-0.004450,316.757568,317.857697,10.000000,24.696272,28.367599,-32.567093,28.709406,77.206353,65.000000,-1.000000,-1.000000,205.549011
462520308.993296,-0.068451,-0.015991,-0.991394,-0.069328,0.022894,0.677646,0.022308,-0.028882,0.331782,0.942650,0.778174,0.624219,0.069254,-0.626796,0.778847,0.022892,-0.039649,-0.061222,0.997336,-0.069254,-0.022892,-0.997336,-0.001714,0.007511,0.009070,0.000349,-0.000165,0.000448,316.789246,317.889374,10.000000,24.558451,28.642288,-31.970100,28.709406,77.206353,65.000000,-1.000000,-1.000000,205.549011
462520309.026549,-0.071457,-0.015045,-0.990067,-0.069352,0.022356,0.677586,0.022058,-0.028984,0.331763,0.942659,0.778187,0.624200,0.069279,-0.626757,0.778894,0.022354,-0.040007,-0.060817,0.997347,-0.069279,-0.022354,-0.997347,-0.001720,0.006653,0.005663,-0.002177,-0.000189,-0.005667,316.828064,317.928192,10.000000,24.489538,28.573624,-31.771103,28.709406,77.206353,65.000000,-1.000000,-1.000000,205.549011
462520309.059885,-0.068634,-0.015106,-0.990128,-0.069427,0.021709,0.677410,0.021762,-0.029128,0.331691,0.942687,0.778265,0.624094,0.069355,-0.626629,0.779015,0.021707,-0.040481,-0.060353,0.997356,-0.069355,-0.021707,-0.997356,0.000721,0.006601,0.007228,0.000303,0.001030,-0.004435,316.906067,318.006195,10.000000,24.282806,28.230240,-31.970100,28.709406,77.206353,65.000000,-1.000000,-1.000000,205.549011
462520309.093219,-0.071884,-0.015198,-0.988724,-0.069562,0.021270,0.677342,0.021577,-0.029266,0.331665,0.942696,0.778283,0.624056,0.069490,-0.626582,0.779065,0.021268,-0.040865,-0.060094,0.997356,-0.069490,-0.021268,-0.997356,-0.003356,0.006757,0.008785,0.001540,0.001020,-0.004422,317.011566,318.111694,10.000000,24.144987,28.848328,-32.301765,28.709406,77.206353,65.000000,-1.000000,-1.000000,205.549011
462520309.126552,-0.070709,-0.013489,-0.991562,-0.069663,0.020866,0.677248,0.021402,-0.029382,0.331627,0.942710,0.778320,0.623999,0.069592,-0.626515,0.779130,0.020865,-0.041201,-0.059840,0.997357,-0.069592,-0.020865,-0.997357,-0.001362,0.008002,0.005963,0.002788,-0.000204,-0.001956,317.065613,318.165741,10.000000,24.351719,29.054352,-32.434433,28.709406,77.206353,65.000000,-1.000000,-1.000000,205.549011
462520309.159852,-0.071884,-0.015121,-0.989105,-0.069762,0.020490,0.677168,0.021240,-0.029492,0.331595,0.942721,0.778350,0.623951,0.069691,-0.626457,0.779187,0.020488,-0.041519,-0.059605,0.997358,-0.069691,-0.020488,-0.997358,-0.001400,0.006206,0.007231,-0.000966,0.001037,-0.001994,317.158203,318.258331,10.000000,24.317265,29.432068,-32.202271,28.709406,77.206353,65.000000,-1.000000,-1.000000,205.549011
462520309.193219,-0.071487,-0.015030,-0.989883,-0.069874,0.020004,0.677082,0.021028,-0.029626,0.331563,0.942733,0.778377,0.623904,0.069803,-0.626396,0.779248,0.020002,-0.041915,-0.059294,0.997360,-0.069803,-0.020002,-0.997360,-0.000906,0.004972,0.007477,-0.000973,-0.000193,-0.001978,317.201752,318.301880,10.000000,24.627363,28.916992,-32.169098,28.709406,77.206353,65.000000,-1.000000,-1.000000,205.549011
462520309.226532,-0.071259,-0.016953,-0.988449,-0.069951,0.019669,0.677025,0.020883,-0.029719,0.331541,0.942741,0.778395,0.623873,0.069881,-0.626355,0.779289,0.019668,-0.042187,-0.059080,0.997361,-0.069881,-0.019668,-0.997361,-0.001134,0.005416,0.005754,-0.002238,0.002257,-0.003230,317.223053,318.323181,10.000000,24.282810,28.916992,-32.301765,28.709406,77.206353,65.000000,-1.000000,-1.000000,205.549011
462520309.259836,-0.071655,-0.014496,-0.990768,-0.070141,0.019310,0.676816,0.020742,-0.029870,0.331447,0.942773,0.778502,0.623719,0.070070,-0.626197,0.779426,0.019309,-0.042572,-0.058910,0.997355,-0.070070,-0.019309,-0.997355,-0.002317,0.003821,0.008082,0.001494,0.001000,-0.004406,317.239807,318.339935,10.000000,24.420630,28.779648,-32.235435,28.709406,77.206353,65.000000,-1.000000,-1.000000,205.549011
462520309.293211,-0.072708,-0.014053,-0.988068,-0.070240,0.019028,0.676660,0.020623,-0.029965,0.331377,0.942797,0.778582,0.623607,0.070170,-0.626079,0.779527,0.019027,-0.042834,-0.058746,0.997354,-0.070170,-0.019027,-0.997354,-0.002538,0.004974,0.009286,-0.000997,-0.001440,-0.003178,317.245514,318.345642,10.000000,24.661814,28.951340,-32.003273,28.709406,77.206353,65.000000,-1.000000,-1.000000,205.549011
462520309.326519,-0.068939,-0.013290,-0.991119,-0.070296,0.018825,0.676546,0.020535,-0.030026,0.331327,0.942815,0.778642,0.623527,0.070225,-0.625993,0.779602,0.018824,-0.043010,-0.058618,0.997354,-0.070225,-0.018824,-0.997354,-0.001857,0.004664,0.008538,0.001491,0.002242,-0.000754,317.245331,318.345459,10.000000,24.937454,28.951340,-32.069595,28.709406,77.206353,65.000000,-1.000000,-1.000000,205.549011
462520309.359838,-0.071671,-0.014603,-0.990067,-0.070253,0.018530,0.676488,0.020388,-0.030055,0.331305,0.942824,0.778667,0.623500,0.070183,-0.625951,0.779642,0.018529,-0.043165,-0.058359,0.997362,-0.070183,-0.018529,-0.997362,0.000710,0.004872,0.006578,0.000232,0.002240,-0.001982,317.253784,318.353912,10.000000,24.868544,29.294708,-32.600250,28.709406,77.206353,65.000000,-1.000000,-1.000000,205.549011
462520309.393223,-0.071609,-0.015732,-0.986893,-0.070365,0.018343,0.676383,0.020317,-0.030140,0.331258,0.942840,0.778720,0.623421,0.070295,-0.625871,0.779711,0.018342,-0.043375,-0.058279,0.997358,-0.070295,-0.018342,-0.997358,-0.001314,0.002610,0.010465,0.004139,0.000923,-0.005511,317.260864,318.360992,10.000000,24.558447,28.642273,-32.965073,28.709406,77.206353,65.000000,-1.000000,-1.000000,205.549011
462520309.426564,-0.072037,-0.015076,-0.989777,-0.070447,0.018262,0.676236,0.020290,-0.030194,0.331189,0.942863,0.778804,0.623307,0.070377,-0.625758,0.779804,0.018261,-0.043498,-0.058261,0.997353,-0.070377,-0.018261,-0.997353,-0.002606,0.002941,0.008828,0.001647,0.002173,-0.003101,317.260223,318.360352,10.000000,24.420630,28.642288,-32.965073,28.709406,77.206353,65.000000,-1.000000,-1.000000,205.549011
462520309.459880,-0.069504,-0.015488,-0.992523,-0.070493,0.018061,0.676145,0.020201,-0.030250,0.331150,0.942877,0.778849,0.623245,0.070423,-0.625689,0.779863,0.018060,-0.043665,-0.058130,0.997354,-0.070423,-0.018060,-0.997354,-0.001125,0.002130,0.007882,-0.003351,0.003413,-0.004371,317.256653,318.356781,10.000000,24.592905,28.333252,-32.931900,28.709406,77.206353,65.000000,-1.000000,-1.000000,205.549011
462520309.493213,-0.067993,-0.014175,-0.987946,-0.070489,0.017909,0.676059,0.020128,-0.030274,0.331112,0.942891,0.778897,0.623186,0.070420,-0.625623,0.779920,0.017908,-0.043762,-0.058004,0.997357,-0.070420,-0.017908,-0.997357,-0.002197,0.002191,0.008801,0.001646,0.003410,-0.000672,317.243378,318.343506,10.000000,24.834091,28.573608,-32.633408,28.709406,77.206353,65.000000,-1.000000,-1.000000,205.549011
462520309.526751,-0.069885,-0.014404,-0.989899,-0.070426,0.017770,0.676020,0.020051,-0.030268,0.331097,0.942898,0.778918,0.623167,0.070357,-0.625595,0.779946,0.017769,-0.043802,-0.057856,0.997364,-0.070357,-0.017769,-0.997364,0.001067,0.003746,0.008197,-0.002098,-0.001501,-0.004311,317.234711,318.334839,10.000000,24.903000,28.367569,-32.102745,28.709406,77.206353,65.000000,-1.000000,-1.000000,205.549011
462520309.559735,-0.069733,-0.015564,-0.989517,-0.070497,0.017519,0.675833,0.019942,-0.030345,0.331012,0.942927,0.779020,0.623031,0.070428,-0.625452,0.780066,0.017519,-0.044024,-0.057697,0.997363,-0.070428,-0.017519,-0.997363,-0.001532,0.002153,0.007144,0.001630,-0.000299,-0.005513,317.235687,318.335815,10.000000,24.386173,28.470581,-32.003250,28.709406,77.206353,65.000000,-1.000000,-1.000000,205.549011
462520309.593074,-0.069641,-0.015457,-0.987274,-0.070466,0.017375,0.675746,0.019868,-0.030355,0.330974,0.942942,0.779069,0.622973,0.070397,-0.625385,0.780123,0.017374,-0.044095,-0.057561,0.997368,-0.070397,-0.017374,-0.997368,0.002526,0.003977,0.008400,0.002882,-0.000291,-0.003063,317.253815,318.353943,10.000000,23.662613,28.504929,-32.301743,28.709406,77.206353,65.000000,-1.000000,-1.000000,205.549011
462520309.626407,-0.071915,-0.016174,-0.988159,-0.070477,0.017260,0.675687,0.019814,-0.030380,0.330948,0.942952,0.779101,0.622932,0.070408,-0.625340,0.780161,0.017259,-0.044179,-0.057476,0.997369,-0.070408,-0.017259,-0.997369,-0.001155,0.003313,0.006143,-0.000865,0.000953,-0.003103,317.277435,318.377563,10.000000,23.765980,28.951324,-32.799232,28.709406,77.206353,65.000000,-1.000000,-1.000000,205.549011
462520309.659799,-0.069153,-0.014633,-0.988892,-0.070620,0.017149,0.675650,0.019785,-0.030466,0.330931,0.942955,0.779112,0.622902,0.070551,-0.625313,0.780186,0.017148,-0.044361,-0.057476,0.997361,-0.070551,-0.017148,-0.997361,-0.001593,0.002072,0.009476,0.001638,-0.000276,-0.000631,317.282898,318.383026,10.000000,24.420630,29.054337,-32.965057,28.709406,77.206353,65.000000,-1.000000,-1.000000,205.549011
462520309.693075,-0.072495,-0.015289,-0.989822,-0.070608,0.017007,0.675635,0.019716,-0.030484,0.330927,0.942958,0.779116,0.622899,0.070539,-0.625303,0.780197,0.017006,-0.044441,-0.057358,0.997364,-0.070539,-0.017006,-0.997364,-0.000628,0.003441,0.007923,0.000385,0.000957,-0.000652,317.281799,318.381927,10.000000,25.075277,29.019989,-33.130890,28.709406,77.206353,65.000000,-1.000000,-1.000000,205.549011
462520309.726415,-0.070160,-0.014771,-0.988358,-0.070639,0.016888,0.675488,0.019663,-0.030520,0.330860,0.942981,0.779201,0.622789,0.070570,-0.625189,0.780290,0.016887,-0.044548,-0.057279,0.997364,-0.070570,-0.016887,-0.997364,0.000319,0.003017,0.005924,-0.000894,0.004609,-0.006798,317.270172,318.370300,10.000000,25.040821,28.504913,-32.567070,28.709406,77.206353,65.000000,-1.000000,-1.000000,205.549011
462520309.759732,-0.070770,-0.016052,-0.990051,-0.070597,0.016795,0.675383,0.019610,-0.030517,0.330812,0.942999,0.779264,0.622715,0.070529,-0.625108,0.780357,0.016794,-0.044580,-0.057175,0.997368,-0.070529,-0.016794,-0.997368,-0.000135,0.002649,0.008980,0.002855,0.007073,-0.001913,317.266357,318.366486,10.000000,24.730722,28.470581,-32.401245,28.709406,77.206353,65.000000,-1.000000,-1.000000,205.549011
462520309.793095,-0.071167,-0.014801,-0.988342,-0.070627,0.016724,0.675323,0.019581,-0.030543,0.330785,0.943008,0.779297,0.622670,0.070559,-0.625062,0.780396,0.016723,-0.044651,-0.057136,0.997367,-0.070559,-0.016723,-0.997367,-0.000303,0.001022,0.007454,0.002862,0.002156,-0.003084,317.254425,318.354553,10.000000,24.902998,28.504929,-31.970078,28.709406,77.206353,65.000000,-1.000000,-1.000000,205.549011
462520309.826411,-0.070633,-0.017212,-0.989868,-0.070631,0.016686,0.675194,0.019562,-0.030552,0.330725,0.943030,0.779375,0.622571,0.070563,-0.624962,0.780477,0.016685,-0.044685,-0.057103,0.997368,-0.070563,-0.016685,-0.997368,-0.000070,0.001671,0.010551,0.000373,0.002179,-0.000662,317.243347,318.343475,10.000000,25.075275,28.745300,-32.202240,28.709406,77.206353,65.000000,-1.000000,-1.000000,205.549011
462520309.859820,-0.071091,-0.014145,-0.989929,-0.070637,0.016637,0.675172,0.019539,-0.030564,0.330715,0.943033,0.779387,0.622556,0.070569,-0.624945,0.780492,0.016636,-0.044722,-0.057067,0.997368,-0.070569,-0.016636,-0.997368,0.000516,0.000904,0.005852,-0.002127,0.000950,-0.003109,317.244476,318.344604,10.000000,24.592905,28.951324,-32.069580,28.709406,77.206353,65.000000,-1.000000,-1.000000,205.549011
462520309.893152,-0.070679,-0.015747,-0.991684,-0.070667,0.016525,0.675132,0.019490,-0.030597,0.330698,0.943039,0.779405,0.622530,0.070599,-0.624915,0.780518,0.016524,-0.044817,-0.056997,0.997368,-0.070599,-0.016524,-0.997368,-0.000492,0.002379,0.007439,0.001616,0.000938,-0.001860,317.252167,318.352295,10.000000,24.386175,29.157349,-32.069580,28.709406,77.206353,65.000000,-1.000000,-1.000000,205.549011
462520309.926473,-0.072586,-0.014496,-0.990265,-0.070679,0.016364,0.675054,0.019416,-0.030630,0.330664,0.943052,0.779446,0.622477,0.070611,-0.624856,0.780569,0.016364,-0.044931,-0.056876,0.997370,-0.070611,-0.016364,-0.997370,-0.001014,0.001578,0.006891,0.000366,0.000943,-0.001869,317.268219,318.368347,10.000000,24.282810,28.916992,-32.169083,28.709406,77.206353,65.000000,-1.000000,-1.000000,205.549011
462520309.959822,-0.068863,-0.016006,-0.987778,-0.070700,0.016326,0.674975,0.019400,-0.030647,0.330627,0.943064,0.779493,0.622416,0.070631,-0.624794,0.780619,0.016325,-0.044975,-0.056855,0.997369,-0.070631,-0.016325,-0.997369,0.000960,-0.000917,0.005395,0.000365,0.002175,-0.000661,317.276367,318.376495,10.000000,24.282810,28.573608,-32.434402,28.709406,77.206353,65.000000,-1.000000,-1.000000,205.549011
462520309.993101,-0.070663,-0.014206,-0.992172,-0.070688,0.016342,0.674930,0.019405,-0.030639,0.330606,0.943072,0.779522,0.622381,0.070620,-0.624760,0.780646,0.016341,-0.044959,-0.056859,0.997369,-0.070620,-0.016341,-0.997369,-0.000166,0.000731,0.009180,0.001610,-0.000299,-0.003066,317.271393,318.371521,10.000000,24.834091,28.504929,-32.567070,28.709406,77.206353,65.000000,-1.000000,-1.000000,205.549011
462520310.026429,-0.072693,-0.014069,-0.989807,-0.070711,0.016316,0.674804,0.019394,-0.030655,0.330547,0.943092,0.779599,0.622283,0.070643,-0.624661,0.780726,0.016315,-0.045000,-0.056847,0.997368,-0.070643,-0.016315,-0.997368,-0.001058,0.003345,0.007744,0.004096,0.002144,-0.003071,317.263367,318.363495,10.000000,24.765182,28.573608,-32.169083,28.709406,77.206353,65.000000,-1.000000,-1.000000,205.549011
462520310.059809,-0.071259,-0.014999,-0.991653,-0.070741,0.016296,0.674699,0.019388,-0.030674,0.330497,0.943109,0.779661,0.622201,0.070673,-0.624579,0.780791,0.016295,-0.045042,-0.056845,0.997366,-0.070673,-0.016295,-0.997366,0.001398,-0.000566,0.006827,0.001602,0.003387,-0.001882,317.260468,318.360596,10.000000,24.455084,28.676620,-31.936905,28.709406,77.206353,65.000000,-1.000000,-1.000000,205.549011
462520310.093102,-0.070053,-0.014740,-0.991486,-0.070710,0.016222,0.674587,0.019346,-0.030672,0.330446,0.943128,0.779729,0.622119,0.070642,-0.624492,0.780862,0.016221,-0.045070,-0.056763,0.997370,-0.070642,-0.016221,-0.997370,0.000741,0.001954,0.008097,0.000348,0.002152,-0.004319,317.265137,318.365265,10.000000,24.386175,28.882645,-31.870583,28.709406,77.206353,65.000000,-1.000000,-1.000000,205.549011
462520310.126478,-0.070312,-0.013626,-0.989471,-0.070668,0.016144,0.674554,0.019302,-0.030666,0.330432,0.943134,0.779748,0.622100,0.070600,-0.624467,0.780884,0.016143,-0.045088,-0.056675,0.997374,-0.070600,-0.016143,-0.997374,-0.001376,0.001601,0.005965,0.000361,0.002178,0.000561,317.281525,318.381653,10.000000,24.110533,29.020004,-31.671585,28.709406,77.206353,65.000000,-1.000000,-1.000000,205.549011
462520310.159811,-0.071320,-0.015274,-0.992325,-0.070702,0.016044,0.674382,0.019258,-0.030700,0.330353,0.943162,0.779849,0.621969,0.070634,-0.624334,0.780993,0.016043,-0.045186,-0.056610,0.997373,-0.070634,-0.016043,-0.997373,-0.000853,0.001196,0.007566,0.001574,0.002118,-0.009189,317.286560,318.386688,10.000000,24.627359,28.779633,-31.903740,28.709406,77.206353,65.000000,-1.000000,-1.000000,205.549011
462520310.193152,-0.071167,-0.014771,-0.990692,-0.070686,0.015976,0.674287,0.019222,-0.030704,0.330309,0.943177,0.779906,0.621900,0.070618,-0.624261,0.781052,0.015976,-0.045221,-0.056543,0.997375,-0.070618,-0.015976,-0.997375,-0.000214,0.000778,0.005890,-0.000889,0.002182,0.000552,317.286255,318.386383,10.000000,24.558447,28.642273,-32.102737,28.709406,77.206353,65.000000,-1.000000,-1.000000,205.549011
462520310.226948,-0.072067,-0.016159,-0.988068,-0.070658,0.015924,0.674226,0.019192,-0.030701,0.330282,0.943188,0.779943,0.621857,0.070591,-0.624214,0.781091,0.015923,-0.045236,-0.056483,0.997378,-0.070591,-0.015923,-0.997378,0.000309,0.000771,0.005298,0.000349,0.002162,-0.001878,317.280701,318.380829,10.000000,24.799635,28.607941,-32.467567,28.709406,77.206353,65.000000,-1.000000,-1.000000,205.549011
462520310.259858,-0.070572,-0.014450,-0.990311,-0.070674,0.015887,0.674102,0.019175,-0.030716,0.330224,0.943208,0.780018,0.621761,0.070607,-0.624117,0.781169,0.015887,-0.045278,-0.056459,0.997378,-0.070607,-0.015887,-0.997378,0.000035,0.001437,0.007067,-0.003260,0.003338,-0.004303,317.279083,318.379211,10.000000,24.661814,28.745300,-32.202232,28.709406,77.206353,65.000000,-1.000000,-1.000000,205.549011
462520310.293160,-0.072021,-0.014938,-0.988342,-0.070711,0.015885,0.674024,0.019179,-0.030734,0.330187,0.943220,0.780064,0.621699,0.070643,-0.624057,0.781218,0.015884,-0.045312,-0.056476,0.997375,-0.070643,-0.015884,-0.997375,0.002100,-0.000061,0.005813,-0.001992,-0.000330,-0.000597,317.278229,318.378357,10.000000,24.558447,28.573608,-32.036392,28.709406,77.206353,65.000000,-1.000000,-1.000000,205.549011
462520310.326344,-0.071442,-0.016296,-0.989380,-0.070784,0.015871,0.673882,0.019183,-0.030772,0.330119,0.943242,0.780149,0.621584,0.070716,-0.623946,0.781307,0.015871,-0.045386,-0.056504,0.997370,-0.070716,-0.015871,-0.997370,-0.000726,-0.000426,0.007990,0.000491,0.000871,-0.003029,317.274078,318.374207,10.000000,24.592901,28.539261,-32.069565,28.709406,77.206353,65.000000,-1.000000,-1.000000,205.549011
462520310.359894,-0.070892,-0.015839,-0.991104,-0.070752,0.015872,0.673795,0.019176,-0.030757,0.330078,0.943257,0.780204,0.621518,0.070684,-0.623877,0.781361,0.015872,-0.045365,-0.056481,0.997373,-0.070684,-0.015872,-0.997373,-0.000026,0.000994,0.008740,-0.002010,0.002103,-0.004281,317.284515,318.384644,10.000000,24.351715,28.916992,-32.301727,28.709406,77.206353,65.000000,-1.000000,-1.000000,205.549011
462520310.392442,-0.070068,-0.014893,-0.989380,-0.070754,0.015814,0.673783,0.019149,-0.030768,0.330074,0.943259,0.780209,0.621512,0.070687,-0.623869,0.781369,0.015814,-0.045404,-0.056437,0.997373,-0.070687,-0.015814,-0.997373,0.000237,0.000601,0.005308,0.000495,-0.001584,-0.003004,317.290894,318.391022,10.000000,24.248350,28.951324,-32.202232,28.709406,77.206353,65.000000,-1.000000,-1.000000,205.549011
462520310.426553,-0.070847,-0.016113,-0.990906,-0.070707,0.015808,0.673722,0.019138,-0.030748,0.330046,0.943270,0.780249,0.621467,0.070639,-0.623821,0.781407,0.015808,-0.045374,-0.056400,0.997377,-0.070639,-0.015808,-0.997377,0.000571,0.000915,0.007997,0.001828,0.002032,-0.004175,317.298309,318.398438,10.000000,24.661814,29.088684,-32.334892,28.709406,77.206353,65.000000,-1.000000,-1.000000,205.549011
462520310.459884,-0.071213,-0.013504,-0.988724,-0.070693,0.015825,0.673510,0.019140,-0.030740,0.329945,0.943305,0.780382,0.621302,0.070625,-0.623655,0.781540,0.015824,-0.045365,-0.056394,0.997377,-0.070625,-0.015824,-0.997377,0.001106,-0.000366,0.008455,0.000594,-0.000404,-0.001720,317.294342,318.394470,10.000000,24.765177,28.848312,-32.434395,28.709406,77.206353,65.000000,-1.000000,-1.000000,205.549011
462520310.493228,-0.071854,-0.015060,-0.990463,-0.070798,0.015774,0.673379,0.019131,-0.030800,0.329884,0.943325,0.780456,0.621197,0.070730,-0.623554,0.781622,0.015773,-0.045486,-0.056414,0.997371,-0.070730,-0.015773,-0.997371,-0.001200,0.001430,0.007274,0.000583,-0.001652,-0.005367,317.299866,318.399994,10.000000,24.076075,28.710953,-32.434395,28.709406,77.206353,65.000000,-1.000000,-1.000000,205.549011
462520310.526563,-0.072983,-0.015335,-0.987656,-0.070886,0.015829,0.673237,0.019169,-0.030833,0.329815,0.943347,0.780543,0.621078,0.070817,-0.623442,0.781709,0.015829,-0.045528,-0.056505,0.997364,-0.070817,-0.015829,-0.997364,-0.002165,0.000493,0.009708,0.001839,-0.000413,-0.001710,317.309479,318.409607,10.000000,23.800434,28.779633,-32.235397,28.709406,77.206353,65.000000,-1.000000,-1.000000,205.549011
462520310.560836,-0.069748,-0.015305,-0.988098,-0.070935,0.015787,0.673227,0.019157,-0.030863,0.329810,0.943348,0.780545,0.621070,0.070866,-0.623435,0.781716,0.015786,-0.045593,-0.056502,0.997361,-0.070866,-0.015786,-0.997361,-0.001262,0.000833,0.007081,-0.001899,-0.000390,-0.000518,317.318420,318.418549,10.000000,24.179443,28.539246,-32.334892,28.709406,77.206353,65.000000,-1.000000,-1.000000,205.549011
462520310.593079,-0.072739,-0.014816,-0.988922,-0.070925,0.015874,0.673051,0.019194,-0.030846,0.329726,0.943377,0.780659,0.620928,0.070856,-0.623296,0.781825,0.015873,-0.045541,-0.056556,0.997360,-0.070856,-0.015873,-0.997360,0.000590,-0.000850,0.006775,-0.000551,0.000681,-0.006525,317.315887,318.416016,10.000000,24.523993,28.401901,-32.666557,28.709406,77.206353,65.000000,-1.000000,-1.000000,205.549011
462520310.626452,-0.072433,-0.015442,-0.992706,-0.070996,0.015841,0.672860,0.019187,-0.030887,0.329636,0.943408,0.780773,0.620777,0.070927,-0.623147,0.781944,0.015840,-0.045628,-0.056566,0.997356,-0.070927,-0.015840,-0.997356,-0.001110,-0.000364,0.007427,-0.000547,0.000686,-0.005304,317.310181,318.410309,10.000000,24.903000,28.573593,-32.699722,28.709406,77.206353,65.000000,-1.000000,-1.000000,205.549011
462520310.659742,-0.070145,-0.016876,-0.987900,-0.071027,0.015786,0.672728,0.019165,-0.030912,0.329574,0.943429,0.780851,0.620674,0.070959,-0.623044,0.782028,0.015786,-0.045694,-0.056537,0.997354,-0.070959,-0.015786,-0.997354,0.002523,0.000313,0.003382,-0.003037,-0.001757,-0.005299,317.297577,318.397705,10.000000,24.971912,28.504913,-32.500725,28.709406,77.206353,65.000000,-1.000000,-1.000000,205.549011
462520310.693075,-0.071198,-0.014542,-0.987793,-0.071018,0.015755,0.672620,0.019147,-0.030914,0.329524,0.943447,0.780917,0.620592,0.070949,-0.622960,0.782095,0.015755,-0.045712,-0.056502,0.997356,-0.070949,-0.015755,-0.997356,-0.000645,0.000954,0.007335,-0.001783,0.001946,-0.000446,317.274109,318.374237,10.000000,25.626562,28.539261,-32.202232,28.709406,77.206353,65.000000,-1.000000,-1.000000,205.549011
462520310.726419,-0.070969,-0.014191,-0.990067,-0.071023,0.015786,0.672590,0.019162,-0.030911,0.329509,0.943452,0.780936,0.620567,0.070955,-0.622937,0.782113,0.015785,-0.045699,-0.056528,0.997355,-0.070955,-0.015785,-0.997355,-0.000182,0.000450,0.008722,-0.001786,0.003173,-0.000458,317.256989,318.357117,10.000000,25.661016,28.230225,-32.434395,28.709406,77.206353,65.000000,-1.000000,-1.000000,205.549011
462520310.759765,-0.072021,-0.013443,-0.992538,-0.071041,0.015712,0.672428,0.019127,-0.030934,0.329434,0.943478,0.781033,0.620443,0.070973,-0.622810,0.782215,0.015711,-0.045768,-0.056473,0.997355,-0.070973,-0.015711,-0.997355,0.000004,0.001520,0.007288,-0.000425,-0.000657,-0.003969,317.236725,318.336853,10.000000,25.282007,28.607941,-32.334892,28.709406,77.206353,65.000000,-1.000000,-1.000000,205.549011
462520310.793096,-0.071274,-0.014740,-0.991150,-0.071065,0.015654,0.672349,0.019103,-0.030955,0.329397,0.943490,0.781078,0.620384,0.070996,-0.622749,0.782265,0.015654,-0.045826,-0.056440,0.997354,-0.070996,-0.015654,-0.997354,0.000119,0.001265,0.007287,0.000814,0.001791,-0.003984,317.231323,318.331451,10.000000,24.799635,28.745300,-32.268570,28.709406,77.206353,65.000000,-1.000000,-1.000000,205.549011
462520310.826496,-0.069839,-0.013474,-0.991882,-0.071018,0.015592,0.672244,0.019064,-0.030944,0.329350,0.943508,0.781143,0.620308,0.070950,-0.622668,0.782331,0.015591,-0.045835,-0.056357,0.997358,-0.070950,-0.015591,-0.997358,0.000942,0.001461,0.007215,-0.000427,0.000576,-0.002761,317.235077,318.335205,10.000000,24.455084,28.882645,-32.401230,28.709406,77.206353,65.000000,-1.000000,-1.000000,205.549011
462520310.859804,-0.070770,-0.014481,-0.990616,-0.071054,0.015561,0.672150,0.019054,-0.030967,0.329305,0.943523,0.781198,0.620234,0.070986,-0.622594,0.782390,0.015561,-0.045887,-0.056352,0.997356,-0.070986,-0.015561,-0.997356,0.001146,0.002087,0.005474,0.000831,-0.000643,-0.000299,317.241821,318.341949,10.000000,24.386175,28.813965,-32.202240,28.709406,77.206353,65.000000,-1.000000,-1.000000,205.549011
462520310.893298,-0.070755,-0.015610,-0.991531,-0.071095,0.015560,0.672004,0.019058,-0.030988,0.329236,0.943547,0.781287,0.620118,0.071027,-0.622480,0.782481,0.015559,-0.045929,-0.056369,0.997353,-0.071027,-0.015559,-0.997353,-0.000094,0.000468,0.007943,0.000804,0.001777,-0.006423,317.243896,318.344025,10.000000,24.523996,28.813965,-32.334908,28.709406,77.206353,65.000000,-1.000000,-1.000000,205.549011
462520310.926592,-0.071014,-0.013855,-0.991379,-0.071145,0.015669,0.671788,0.019114,-0.030996,0.329131,0.943582,0.781424,0.619940,0.071077,-0.622310,0.782614,0.015668,-0.045912,-0.056475,0.997348,-0.071077,-0.015668,-0.997348,-0.001754,0.000730,0.007724,-0.000324,0.000448,-0.003877,317.244446,318.344574,10.000000,24.765182,28.916992,-32.169075,28.709406,77.206353,65.000000,-1.000000,-1.000000,205.549011
462520310.959815,-0.069412,-0.015442,-0.992462,-0.071181,0.015691,0.671679,0.019129,-0.031010,0.329079,0.943599,0.781490,0.619851,0.071112,-0.622224,0.782682,0.015690,-0.045933,-0.056510,0.997345,-0.071112,-0.015690,-0.997345,-0.000329,-0.000987,0.005463,-0.000320,0.000455,-0.002657,317.235260,318.335388,10.000000,25.109732,28.710953,-32.102745,28.709406,77.206353,65.000000,-1.000000,-1.000000,205.549011
462520310.993146,-0.071854,-0.014526,-0.991852,-0.071189,0.015704,0.671510,0.019134,-0.031014,0.328999,0.943627,0.781595,0.619718,0.071121,-0.622092,0.782787,0.015703,-0.045941,-0.056517,0.997344,-0.071121,-0.015703,-0.997344,-0.000336,0.000017,0.007644,0.002161,-0.000810,-0.007505,317.230957,318.331085,10.000000,24.903000,28.779633,-32.434402,28.709406,77.206353,65.000000,-1.000000,-1.000000,205.549011
462520311.026478,-0.070633,-0.014252,-0.990631,-0.071203,0.015644,0.671415,0.019106,-0.031031,0.328956,0.943642,0.781650,0.619647,0.071134,-0.622019,0.782846,0.015643,-0.045994,-0.056474,0.997344,-0.071134,-0.015643,-0.997344,-0.000216,0.000125,0.005569,-0.001566,-0.000767,-0.002654,317.225189,318.325317,10.000000,24.730726,28.539261,-32.268578,28.709406,77.206353,65.000000,-1.000000,-1.000000,205.549011
462520311.059809,-0.071091,-0.015640,-0.990372,-0.071151,0.015615,0.671284,0.019082,-0.031012,0.328895,0.943664,0.781733,0.619549,0.071082,-0.621916,0.782928,0.015614,-0.045978,-0.056413,0.997348,-0.071082,-0.015614,-0.997348,0.000632,0.000935,0.007755,0.002166,0.002898,-0.002662,317.223694,318.323822,10.000000,24.799637,28.745300,-32.334915,28.709406,77.206353,65.000000,-1.000000,-1.000000,205.549011
462520311.093154,-0.070679,-0.015549,-0.990479,-0.071230,0.015608,0.671124,0.019089,-0.031052,0.328819,0.943689,0.781828,0.619420,0.071162,-0.621791,0.783028,0.015607,-0.046054,-0.056450,0.997343,-0.071162,-0.015607,-0.997343,-0.001241,0.000806,0.008802,-0.000249,0.001536,-0.008669,317.225952,318.326080,10.000000,24.696274,28.916992,-32.368073,28.709406,77.206353,65.000000,-1.000000,-1.000000,205.549011
462520311.126476,-0.070618,-0.014206,-0.989304,-0.071233,0.015663,0.671014,0.019114,-0.031046,0.328766,0.943708,0.781898,0.619331,0.071164,-0.621704,0.783095,0.015662,-0.046028,-0.056489,0.997342,-0.071164,-0.015662,-0.997342,0.001142,0.000556,0.006939,0.002256,0.000311,-0.006198,317.231140,318.331268,10.000000,24.903004,29.397720,-32.633408,28.709406,77.206353,65.000000,-1.000000,-1.000000,205.549011
462520311.159817,-0.069351,-0.014771,-0.991272,-0.071198,0.015620,0.670942,0.019087,-0.031037,0.328733,0.943720,0.781943,0.619279,0.071129,-0.621648,0.783141,0.015619,-0.046031,-0.056431,0.997345,-0.071129,-0.015619,-0.997345,-0.001777,0.001047,0.007416,0.001015,0.004024,-0.001364,317.230438,318.330566,10.000000,25.109735,29.191696,-32.898735,28.709406,77.206353,65.000000,-1.000000,-1.000000,205.549011
462520311.193211,-0.071487,-0.016739,-0.987976,-0.071172,0.015536,0.670870,0.019042,-0.031039,0.328701,0.943732,0.781985,0.619228,0.071103,-0.621593,0.783187,0.015535,-0.046068,-0.056346,0.997348,-0.071103,-0.015535,-0.997348,-0.001956,0.000688,0.006580,-0.002713,0.001600,0.001072,317.226624,318.326752,10.000000,25.247557,29.329041,-32.301743,28.709406,77.206353,65.000000,-1.000000,-1.000000,205.549011
462520311.226776,-0.073181,-0.014694,-0.989746,-0.071190,0.015565,0.670792,0.019057,-0.031044,0.328663,0.943744,0.782034,0.619165,0.071121,-0.621531,0.783235,0.015565,-0.046068,-0.056376,0.997346,-0.071121,-0.015565,-0.997346,-0.000442,0.001877,0.005174,0.001014,-0.000905,-0.004974,317.221802,318.321930,10.000000,24.834095,28.710953,-32.500740,28.709406,77.206353,65.000000,-1.000000,-1.000000,205.549011
462520311.260078,-0.070679,-0.015625,-0.992584,-0.071216,0.015556,0.670653,0.019055,-0.031059,0.328597,0.943767,0.782118,0.619055,0.071147,-0.621422,0.783321,0.015555,-0.046101,-0.056378,0.997345,-0.071147,-0.015555,-0.997345,0.000468,-0.000070,0.004760,-0.002635,0.000254,-0.001261,317.225586,318.325714,10.000000,24.558451,28.985657,-32.368073,28.709406,77.206353,65.000000,-1.000000,-1.000000,205.549011
462520311.293222,-0.072083,-0.015045,-0.992249,-0.071263,0.015562,0.670508,0.019063,-0.031081,0.328528,0.943790,0.782206,0.618939,0.071194,-0.621309,0.783412,0.015561,-0.046143,-0.056405,0.997341,-0.071194,-0.015561,-0.997341,-0.000888,0.000516,0.005093,-0.000151,0.001456,-0.003694,317.222504,318.322632,10.000000,24.765181,28.573608,-32.699738,28.709406,77.206353,65.000000,-1.000000,-1.000000,205.549011
462520311.326507,-0.071548,-0.016479,-0.989075,-0.071080,0.015011,0.670505,0.018773,-0.031086,0.328539,0.943792,0.782192,0.618978,0.071013,-0.621312,0.783419,0.015010,-0.046342,-0.055862,0.997362,-0.071013,-0.015010,-0.997362,0.000151,-0.001454,0.005984,-0.062539,0.023865,0.002926,317.224670,318.324799,10.000000,24.765181,28.916977,-32.169083,28.709406,77.206353,65.000000,-1.000000,-1.000000,205.549011
462520311.359855,-0.074371,-0.018311,-0.978622,-0.070591,0.014198,0.670531,0.018310,-0.030988,0.328570,0.943794,0.782163,0.619070,0.070525,-0.621339,0.783413,0.014198,-0.046461,-0.054925,0.997409,-0.070525,-0.014198,-0.997409,-0.003846,-0.004113,0.018787,-0.035100,0.015117,-0.002877,317.222382,318.322510,10.000000,25.040823,28.916977,-32.036415,28.709406,77.206353,65.000000,-1.000000,-1.000000,205.549011
462520311.393254,-0.069656,-0.016098,-0.984879,-0.070518,0.014017,0.670495,0.018212,-0.030984,0.328557,0.943800,0.782181,0.619056,0.070453,-0.621313,0.783437,0.014016,-0.046519,-0.054737,0.997417,-0.070453,-0.014016,-0.997417,-0.002759,0.002603,0.000056,0.008596,0.000208,0.000046,317.230713,318.330841,10.000000,24.834091,29.466370,-31.903740,28.709406,77.206353,65.000000,-1.000000,-1.000000,205.549011
462520311.426553,-0.070557,-0.009354,-0.998138,-0.070724,0.014627,0.670384,0.018531,-0.030982,0.328492,0.943817,0.782266,0.618924,0.070657,-0.621221,0.783499,0.014626,-0.046307,-0.055335,0.997393,-0.070657,-0.014626,-0.997393,0.002176,0.003747,-0.000730,0.009853,-0.008400,-0.002299,317.234711,318.334839,10.000000,25.316465,29.535049,-32.169075,28.709406,77.206353,65.000000,-1.000000,-1.000000,205.549011
462520311.459904,-0.071854,-0.017929,-0.988907,-0.070865,0.014663,0.670227,0.018570,-0.031044,0.328416,0.943840,0.782359,0.618791,0.070798,-0.621097,0.783597,0.014663,-0.046404,-0.055444,0.997383,-0.070798,-0.014663,-0.997383,-0.001056,-0.003266,0.008476,0.016151,-0.002380,-0.001003,317.238647,318.338776,10.000000,24.937454,29.432037,-32.135910,28.709406,77.206353,65.000000,-1.000000,-1.000000,205.549011
462520311.493077,-0.072525,-0.013428,-0.987350,-0.070804,0.014912,0.670141,0.018675,-0.030975,0.328371,0.943856,0.782426,0.618714,0.070737,-0.621027,0.783647,0.014911,-0.046207,-0.055596,0.997384,-0.070737,-0.014911,-0.997384,0.003888,0.003955,0.006798,0.008654,0.000096,-0.003525,317.231812,318.331940,10.000000,25.144190,28.813965,-32.069572,28.709406,77.206353,65.000000,-1.000000,-1.000000,205.549011
462520311.526392,-0.070831,-0.015945,-0.989929,-0.070920,0.015031,0.670054,0.018749,-0.031011,0.328327,0.943869,0.782479,0.618632,0.070852,-0.620958,0.783700,0.015030,-0.046229,-0.055757,0.997374,-0.070852,-0.015030,-0.997374,0.001165,0.001465,0.003584,-0.001312,-0.004769,-0.003552,317.228760,318.328888,10.000000,24.834091,28.779617,-32.169075,28.709406,77.206353,65.000000,-1.000000,-1.000000,205.549011
462520311.559870,-0.073380,-0.015442,-0.988663,-0.070849,0.015108,0.670021,0.018774,-0.030965,0.328311,0.943875,0.782506,0.618606,0.070782,-0.620932,0.783719,0.015107,-0.046127,-0.055772,0.997377,-0.070782,-0.015107,-0.997377,0.000576,0.000581,0.009539,0.008673,0.003824,0.004979,317.231018,318.331146,10.000000,24.213898,28.710938,-32.633408,28.709406,77.206353,65.000000,-1.000000,-1.000000,205.549011
462520311.592689,-0.069672,-0.012756,-0.994415,-0.070884,0.015329,0.669989,0.018883,-0.030946,0.328291,0.943881,0.782534,0.618567,0.070816,-0.620904,0.783736,0.015328,-0.046020,-0.055965,0.997372,-0.070816,-0.015328,-0.997372,-0.001007,0.003304,0.007626,0.007409,0.003802,0.000090,317.236145,318.336273,10.000000,24.420628,28.985641,-32.567078,28.709406,77.206353,65.000000,-1.000000,-1.000000,205.549011
462520311.626419,-0.069077,-0.016373,-0.994156,-0.070848,0.015454,0.669992,0.018936,-0.030908,0.328291,0.943881,0.782540,0.618564,0.070780,-0.620905,0.783733,0.015453,-0.045914,-0.056041,0.997372,-0.070780,-0.015453,-0.997372,-0.001089,-0.001820,0.011288,-0.006228,-0.001117,0.002558,317.247955,318.348083,10.000000,24.248350,28.951294,-32.666573,28.709406,77.206353,65.000000,-1.000000,-1.000000,205.549011
462520311.659743,-0.070724,-0.016113,-0.985718,-0.070585,0.015109,0.669984,0.018730,-0.030841,0.328296,0.943886,0.782541,0.618592,0.070519,-0.620903,0.783742,0.015109,-0.045922,-0.055608,0.997396,-0.070519,-0.015109,-0.997396,0.002709,-0.000562,0.002798,-0.008757,0.013621,0.002392,317.247925,318.348053,10.000000,24.903000,28.848282,-32.633408,28.709406,77.206353,65.000000,-1.000000,-1.000000,205.549011
462520311.693080,-0.067841,-0.018478,-0.988785,-0.070436,0.015165,0.670070,0.018733,-0.030761,0.328337,0.943874,0.782498,0.618664,0.070370,-0.620969,0.783688,0.015164,-0.045767,-0.055563,0.997406,-0.070370,-0.015164,-0.997406,0.001888,0.000195,0.006378,0.004961,-0.006155,-0.011946,317.249725,318.349854,10.000000,24.696272,28.985641,-32.699738,28.709406,77.206353,65.000000,-1.000000,-1.000000,205.549011
462520311.726417,0.014404,-0.208984,-0.987854,-0.070089,0.015413,0.668499,0.018769,-0.030570,0.327594,0.944137,0.783495,0.617440,0.070023,-0.619735,0.784660,0.015412,-0.045428,-0.055471,0.997426,-0.070023,-0.015412,-0.997426,0.011566,-0.007903,-0.006358,-0.016073,0.000378,0.042729,317.246033,318.346161,10.000000,24.971914,28.779602,-32.434410,28.709406,77.206353,65.000000,-1.000000,-1.000000,205.549011
462520311.759725,-0.104263,0.074280,-0.982285,-0.069968,0.014973,0.672088,0.018597,-0.030552,0.329297,0.943549,0.781260,0.620279,0.069903,-0.622552,0.782436,0.014973,-0.045407,-0.055216,0.997441,-0.069903,-0.014973,-0.997441,0.067126,-0.118542,0.021276,-0.019716,0.005484,0.075591,317.558319,318.658447,10.000000,24.627363,28.779602,-32.235405,28.709406,77.206353,65.000000,-1.000000,-1.000000,205.549011
462520311.793108,-0.144699,0.045273,-0.979828,-0.069422,0.014043,0.672220,0.018070,-0.030447,0.329381,0.943533,0.781163,0.620463,0.069360,-0.622663,0.782364,0.014043,-0.045551,-0.054157,0.997493,-0.069360,-0.014043,-0.997493,-0.034904,0.088322,0.015208,-0.046167,0.025948,-0.005256,317.164307,318.264435,10.000000,24.903004,28.504898,-32.235405,28.709406,77.206353,65.000000,-1.000000,-1.000000,205.549011
462520311.826455,-0.080032,-0.005585,-0.992386,-0.068240,0.012933,0.671914,0.017348,-0.030075,0.329266,0.943599,0.781359,0.620346,0.068181,-0.622433,0.782566,0.012933,-0.045333,-0.052544,0.997589,-0.068181,-0.012933,-0.997589,0.005864,-0.009360,0.016617,-0.015029,0.044223,-0.003980,316.955933,318.056061,10.000000,24.937460,28.882614,-32.268570,28.709406,77.206353,65.000000,-1.000000,-1.000000,205.549011
462520311.859801,-0.062424,-0.015228,-0.998550,-0.067362,0.012512,0.672091,0.017007,-0.029729,0.329364,0.943582,0.781271,0.620553,0.067306,-0.622575,0.782460,0.012512,-0.044900,-0.051678,0.997654,-0.067306,-0.012512,-0.997654,-0.007249,0.005035,-0.003658,0.000059,0.018485,0.014692,316.957886,318.058014,10.000000,25.178648,28.779587,-31.903748,28.709406,77.206353,65.000000,-1.000000,-1.000000,205.549011
462520311.893125,-0.059540,-0.011429,-0.984512,-0.066694,0.012918,0.673412,0.017108,-0.029335,0.329986,0.943375,0.780498,0.621597,0.066639,-0.623604,0.781633,0.012918,-0.044058,-0.051639,0.997693,-0.066639,-0.012918,-0.997693,0.004216,-0.002310,-0.000857,0.006386,0.023539,0.046411,316.955078,318.055206,10.000000,25.385380,28.710907,-31.704750,28.709406,77.206353,65.000000,-1.000000,-1.000000,205.549011
462520311.926648,-0.075378,-0.007599,-0.997147,-0.066085,0.013293,0.673655,0.017188,-0.028984,0.330100,0.943344,0.780388,0.621799,0.066031,-0.623792,0.781478,0.013293,-0.043336,-0.051563,0.997729,-0.066031,-0.013293,-0.997729,-0.005518,0.005221,-0.000837,-0.006193,0.001240,-0.002264,316.945709,318.045837,10.000000,25.454288,28.504883,-31.771072,28.709406,77.206353,65.000000,-1.000000,-1.000000,205.549011
462520311.959885,-0.065475,-0.013016,-0.993317,-0.066012,0.013534,0.673391,0.017285,-0.028912,0.329972,0.943390,0.780566,0.621584,0.065958,-0.623583,0.781640,0.013533,-0.043143,-0.051694,0.997731,-0.065958,-0.013533,-0.997731,0.003275,-0.000963,-0.002452,0.012537,0.003504,-0.008162,316.938171,318.038300,10.000000,25.454288,28.916931,-32.102737,28.709406,77.206353,65.000000,-1.000000,-1.000000,205.549011
462520311.993159,-0.062088,-0.012436,-0.990219,-0.065896,0.013915,0.673089,0.017442,-0.028797,0.329824,0.943442,0.780774,0.621335,0.065842,-0.623344,0.781824,0.013915,-0.042831,-0.051906,0.997733,-0.065842,-0.013915,-0.997733,0.003754,0.001479,0.007514,0.008802,-0.002628,-0.010569,316.941498,318.041626,10.000000,25.144190,29.019958,-32.202240,28.709406,77.206353,65.000000,-1.000000,-1.000000,205.549011
462520312.026327,-0.069870,-0.015366,-0.989182,-0.065740,0.013549,0.672981,0.017242,-0.028785,0.329780,0.943461,0.780833,0.621277,0.065687,-0.623262,0.781895,0.013549,-0.042943,-0.051520,0.997748,-0.065687,-0.013549,-0.997748,-0.001070,0.001098,0.006293,-0.022369,0.007383,-0.001147,316.945404,318.045532,10.000000,25.282011,29.019958,-31.804245,28.709406,77.206353,65.000000,-1.000000,-1.000000,205.549011
462520312.059882,-0.063004,-0.010925,-0.983887,-0.065698,0.013652,0.672704,0.017279,-0.028750,0.329648,0.943508,0.781011,0.621058,0.065644,-0.623045,0.782067,0.013651,-0.042860,-0.051561,0.997750,-0.065644,-0.013651,-0.997750,-0.001586,-0.005117,0.000908,0.005042,0.007212,-0.009476,316.956909,318.057037,10.000000,25.040821,29.122971,-31.572083,28.709406,77.206353,65.000000,-1.000000,-1.000000,205.549011
462520312.093162,-0.066208,-0.013748,-0.989914,-0.065319,0.013194,0.672245,0.016994,-0.028651,0.329443,0.943588,0.781293,0.620742,0.065267,-0.622690,0.782357,0.013193,-0.042872,-0.050949,0.997781,-0.065267,-0.013193,-0.997781,0.001562,0.002009,0.005898,-0.019957,0.014627,-0.020721,316.960297,318.060425,10.000000,25.213095,29.088623,-31.605247,28.709406,77.206353,65.000000,-1.000000,-1.000000,205.549011
462520312.126518,-0.066696,-0.011261,-0.985138,-0.064567,0.012771,0.671255,0.016657,-0.028374,0.328989,0.943761,0.781923,0.620028,0.064517,-0.621918,0.782978,0.012770,-0.042597,-0.050110,0.997835,-0.064517,-0.012770,-0.997835,-0.000592,-0.001908,0.010240,-0.026235,0.030468,-0.035499,316.974091,318.074219,10.000000,24.971909,29.054291,-31.439423,28.709406,77.206353,65.000000,-1.000000,-1.000000,205.549011
462520312.159883,-0.064362,-0.016159,-0.990097,-0.063787,0.011638,0.669285,0.015966,-0.028209,0.328084,0.944092,0.783130,0.618582,0.063740,-0.620384,0.784212,0.011638,-0.042786,-0.048657,0.997899,-0.063740,-0.011638,-0.997899,-0.002316,-0.001729,0.011357,-0.055034,0.024246,-0.074698,316.980530,318.080658,10.000000,25.385374,29.122971,-31.505753,28.709406,77.206353,65.000000,-1.000000,-1.000000,205.549011
462520312.193293,-0.060257,-0.020752,-0.997375,-0.063176,0.010415,0.665644,0.015238,-0.028149,0.326388,0.944694,0.785356,0.615816,0.063131,-0.617532,0.786477,0.010415,-0.043237,-0.047165,0.997951,-0.063131,-0.010415,-0.997951,0.000631,-0.005958,0.000240,-0.030211,0.016538,-0.117133,317.306580,318.406708,10.000000,25.316465,29.397675,-31.439423,28.709406,77.206353,65.000000,-1.000000,-1.000000,205.549011
462520312.226563,-0.056656,-0.006638,-0.994522,-0.062808,0.010884,0.662918,0.015361,-0.027919,0.325096,0.945144,0.787066,0.613667,0.062763,-0.615383,0.788153,0.010884,-0.042788,-0.047190,0.997969,-0.062763,-0.010884,-0.997969,-0.009319,-0.001217,0.003127,0.003701,0.011850,-0.048505,317.519531,318.619659,10.000000,25.282011,29.500687,-31.472588,28.709406,77.206353,65.000000,-1.000000,-1.000000,205.549011
462520312.260001,-0.065262,-0.010284,-1.004761,-0.061954,0.009347,0.662381,0.014488,-0.027769,0.324873,0.945239,0.787373,0.613360,0.061911,-0.614969,0.788496,0.009347,-0.043084,-0.045433,0.998038,-0.061911,-0.009347,-0.998038,-0.001993,0.002832,0.000525,-0.014889,0.018299,-0.007230,317.517883,318.618011,10.000000,25.144190,29.225983,-31.671585,28.709406,77.206353,65.000000,-1.000000,-1.000000,205.549011
462520312.292650,-0.066284,-0.006973,-0.990555,-0.061703,0.008381,0.662234,0.013989,-0.027809,0.324820,0.945263,0.787437,0.613303,0.061662,-0.614859,0.788593,0.008381,-0.043486,-0.044512,0.998062,-0.061662,-0.008381,-0.998062,0.002107,-0.000775,0.004684,-0.038505,0.009787,-0.001158,316.937012,318.037140,10.000000,25.592108,28.916931,-31.771080,28.709440,77.206289,65.000000,-1.000000,-1.000000,205.556824
462520312.326618,-0.057739,-0.011353,-0.990295,-0.061153,0.007836,0.662096,0.013640,-0.027639,0.324767,0.945292,0.787525,0.613245,0.061113,-0.614753,0.788681,0.007836,-0.043393,-0.043741,0.998100,-0.061113,-0.007836,-0.998100,0.003374,-0.003516,0.007805,-0.028569,0.017067,-0.008475,316.743530,317.843658,10.000000,25.488743,28.813919,-31.870583,28.709440,77.206289,65.000000,-1.000000,-1.000000,205.556824
462520312.359885,-0.064011,-0.006775,-0.982620,-0.060203,0.006625,0.661304,0.012903,-0.027392,0.324417,0.945430,0.788007,0.612719,0.060166,-0.614133,0.789175,0.006625,-0.043422,-0.042170,0.998166,-0.060166,-0.006625,-0.998166,-0.001266,-0.001493,0.012540,-0.052389,0.034214,-0.034448,316.767151,317.867279,10.000000,25.557653,28.813919,-31.472588,28.709440,77.206289,65.000000,-1.000000,-1.000000,205.556824
462520312.393145,-0.051956,-0.006302,-0.997391,-0.059938,0.005630,0.660570,0.012379,-0.027432,0.324086,0.945549,0.788431,0.612199,0.059901,-0.613558,0.789630,0.005630,-0.043853,-0.041191,0.998188,-0.059901,-0.005630,-0.998188,-0.003087,-0.000168,0.011616,-0.069855,0.023194,-0.044232,316.772797,317.872925,10.000000,25.350922,29.019958,-31.273598,28.709440,77.206289,65.000000,-1.000000,-1.000000,205.556824
462520312.426394,-0.059601,-0.007309,-0.979523,-0.057792,0.000710,0.654888,0.009628,-0.027243,0.321480,0.946475,0.791817,0.608021,0.057760,-0.609070,0.793116,0.000710,-0.045378,-0.035742,0.998330,-0.057760,-0.000710,-0.998330,-0.001841,-0.006599,0.018808,-0.105276,0.064403,-0.168136,316.778442,317.878571,10.000000,25.247557,29.191650,-31.373093,28.709440,77.206289,65.000000,-1.000000,-1.000000,205.556824
462520312.459761,-0.058655,0.011200,-0.977005,-0.057160,-0.000481,0.652066,0.008925,-0.027148,0.320163,0.946931,0.793517,0.605861,0.057129,-0.606830,0.794832,-0.000481,-0.045699,-0.034286,0.998367,-0.057129,0.000481,-0.998367,-0.008346,-0.003258,0.025466,-0.077780,0.039735,-0.167680,317.922577,319.022705,10.000000,24.937458,29.844070,-31.605263,28.709440,77.206289,65.000000,-1.000000,-1.000000,205.556824
462520312.493082,-0.049789,0.005249,-0.999298,-0.056288,-0.002169,0.646515,0.007911,-0.027027,0.317560,0.947820,0.796850,0.601552,0.056258,-0.602407,0.798186,-0.002169,-0.046209,-0.032162,0.998414,-0.056258,0.002169,-0.998414,0.007094,-0.007327,-0.004455,-0.044060,0.013668,-0.182968,318.514465,319.614594,10.000000,24.730726,30.187454,-31.671593,28.709440,77.206289,65.000000,-1.000000,-1.000000,205.556824
462520312.526418,-0.053986,-0.001785,-0.997177,-0.055822,-0.002764,0.640225,0.007470,-0.026924,0.314587,0.948817,0.800620,0.596569,0.055793,-0.597373,0.801959,-0.002764,-0.046393,-0.031116,0.998439,-0.055793,0.002764,-0.998439,0.006003,0.002485,-0.000860,-0.035381,0.004922,-0.204775,318.939514,320.039642,10.000000,24.523996,30.393494,-31.074600,28.709440,77.206289,65.000000,-1.000000,-1.000000,205.556824
462520312.559750,-0.053101,-0.003769,-0.992310,-0.055250,-0.002994,0.629913,0.007134,-0.026726,0.309696,0.950433,0.806749,0.588309,0.055222,-0.589072,0.808075,-0.002994,-0.046385,-0.030114,0.998470,-0.055222,0.002994,-0.998470,0.005371,-0.004611,0.006847,-0.014208,0.001082,-0.216775,318.937256,320.037384,10.000000,24.523996,30.118774,-31.074600,28.709440,77.206289,65.000000,-1.000000,-1.000000,205.556824
462520312.593082,-0.056427,0.010269,-0.984680,-0.054835,-0.002906,0.621084,0.006994,-0.026546,0.305498,0.951797,0.811933,0.581172,0.054807,-0.581915,0.813245,-0.002906,-0.046260,-0.029534,0.998493,-0.054807,0.002906,-0.998493,-0.003192,-0.008780,0.005985,-0.040800,0.022702,-0.324556,318.954285,320.054413,10.000000,24.007170,30.633850,-30.975105,28.709440,77.206289,65.000000,-1.000000,-1.000000,205.556824
462520312.626414,-0.036682,0.031876,-0.988693,-0.054159,-0.004864,0.608393,0.005790,-0.026561,0.299479,0.953716,0.819214,0.570928,0.054132,-0.571543,0.820558,-0.004864,-0.047196,-0.026954,0.998522,-0.054132,0.004864,-0.998522,0.017450,0.027011,0.009829,-0.051098,0.014833,-0.425818,320.438934,321.539062,10.000000,23.765982,31.217606,-31.273598,28.709440,77.206289,65.000000,-1.000000,-1.000000,205.556824
462520312.659749,-0.039673,0.003174,-0.994278,-0.052937,-0.005359,0.595674,0.005206,-0.026086,0.293417,0.955614,0.826452,0.560516,0.052912,-0.561059,0.827758,-0.005359,-0.046802,-0.025257,0.998585,-0.052912,0.005359,-0.998585,0.031656,0.021878,0.000813,0.016486,-0.008562,-0.373790,321.227112,322.327240,10.000000,23.386976,31.732681,-31.240433,28.709440,77.206289,65.000000,-1.000000,-1.000000,205.556824
462520312.693106,-0.068253,-0.007523,-0.998566,-0.053302,-0.003737,0.583785,0.005879,-0.026058,0.287710,0.957345,0.833088,0.550569,0.053277,-0.551182,0.834377,-0.003737,-0.046510,-0.026252,0.998573,-0.053277,0.003737,-0.998573,-0.014366,-0.018737,-0.006051,-0.001008,0.007467,-0.374083,321.839630,322.939758,10.000000,23.007965,31.767029,-31.140938,28.709440,77.206289,65.000000,-1.000000,-1.000000,205.556824
462520312.726450,-0.049133,0.002304,-0.988663,-0.053825,-0.002136,0.571675,0.006563,-0.026118,0.281887,0.959070,0.839716,0.540355,0.053799,-0.541041,0.840994,-0.002136,-0.046398,-0.027313,0.998550,-0.053799,0.002136,-0.998550,-0.005497,-0.006790,0.012435,0.036368,0.004761,-0.388411,323.416931,324.517059,10.000000,22.284407,32.831482,-31.373093,28.709440,77.206289,65.000000,-1.000000,-1.000000,205.556824
462520312.759803,-0.068329,-0.004669,-0.986542,-0.053412,-0.000256,0.558596,0.007239,-0.025704,0.275586,0.960906,0.846784,0.529252,0.053387,-0.529996,0.848000,-0.000256,-0.045408,-0.028078,0.998574,-0.053387,0.000256,-0.998574,-0.009861,-0.005536,0.008385,0.020027,0.008316,-0.425172,323.443359,324.543488,10.000000,21.802031,33.106201,-31.240425,28.709440,77.206289,65.000000,-1.000000,-1.000000,205.556824
462520312.793137,-0.051895,-0.008408,-0.996811,-0.053773,0.001162,0.545425,0.007800,-0.025733,0.269232,0.962700,0.853703,0.517979,0.053747,-0.518782,0.854906,0.001162,-0.045347,-0.028875,0.998554,-0.053747,-0.001162,-0.998554,-0.004999,0.000155,0.002109,0.016413,0.003614,-0.389772,323.542114,324.642242,10.000000,21.423025,33.895966,-31.339920,28.709440,77.206289,65.000000,-1.000000,-1.000000,205.556824
462520312.826546,-0.062454,-0.022934,-0.992111,-0.053709,0.002091,0.534326,0.008097,-0.025623,0.263874,0.964183,0.859428,0.508430,0.053684,-0.509260,0.860610,0.002091,-0.045138,-0.029136,0.998556,-0.053684,-0.002091,-0.998556,-0.005261,-0.017029,0.003256,-0.003303,0.004096,-0.317946,323.707458,324.807587,10.000000,20.596100,33.689957,-31.605240,28.709440,77.206289,65.000000,-1.000000,-1.000000,205.556824
462520312.859831,-0.050552,-0.003876,-0.990479,-0.053811,0.003158,0.523431,0.008486,-0.025578,0.258603,0.965608,0.864940,0.498984,0.053785,-0.499852,0.866105,0.003158,-0.045007,-0.029616,0.998548,-0.053785,-0.003158,-0.998548,0.004148,-0.019242,0.004941,-0.028353,0.001552,-0.354713,323.789917,324.890045,10.000000,20.768379,33.449600,-31.638405,28.709440,77.206289,65.000000,-1.000000,-1.000000,205.556824
462520312.893387,-0.055862,-0.026932,-0.996017,-0.053584,0.003199,0.513540,0.008350,-0.025505,0.253825,0.966878,0.869845,0.490409,0.053559,-0.491261,0.871007,0.003199,-0.045081,-0.029094,0.998560,-0.053559,-0.003199,-0.998560,0.009079,-0.000753,0.006952,-0.008048,-0.005346,-0.253227,325.535034,326.635162,10.000000,20.699467,33.518280,-31.704742,28.709440,77.206289,65.000000,-1.000000,-1.000000,205.556824
462520312.926662,-0.064789,-0.033325,-0.991394,-0.053708,0.006376,0.507202,0.009822,-0.025192,0.250717,0.967683,0.873013,0.484734,0.053681,-0.485724,0.874089,0.006376,-0.043831,-0.031640,0.998538,-0.053681,-0.006376,-0.998538,-0.005722,-0.025377,0.008166,0.058620,0.007598,-0.074722,325.935394,327.035522,10.000000,21.044018,33.655640,-31.373093,28.709440,77.206289,65.000000,-1.000000,-1.000000,205.556824
462520312.959861,-0.046371,-0.007233,-0.993729,-0.053604,0.009947,0.505835,0.011519,-0.024702,0.250008,0.967860,0.873772,0.483376,0.053575,-0.484514,0.874727,0.009946,-0.042056,-0.034649,0.998514,-0.053575,-0.009946,-0.998514,0.007204,0.002714,0.004786,0.031262,0.009076,-0.051766,326.498444,327.598572,10.000000,20.699467,33.999008,-31.240425,28.709440,77.206289,65.000000,-1.000000,-1.000000,205.556824
462520312.993223,-0.054230,-0.011353,-0.997711,-0.053296,0.010897,0.503516,0.011912,-0.024448,0.248874,0.968154,0.874928,0.481315,0.053268,-0.482480,0.875839,0.010897,-0.041409,-0.035234,0.998521,-0.053268,-0.010897,-0.998521,0.005126,0.004732,0.028459,0.022444,0.001580,-0.083479,327.654297,328.754425,10.000000,19.941448,34.479736,-31.107765,28.709440,77.206289,65.000000,-1.000000,-1.000000,205.556824
462520313.026569,-0.052658,-0.007584,-0.997559,-0.053400,0.011632,0.500357,0.012242,-0.024426,0.247334,0.968545,0.876458,0.478510,0.053371,-0.479706,0.877352,0.011632,-0.041259,-0.035797,0.998507,-0.053371,-0.011632,-0.998507,-0.003941,0.004460,0.005053,0.034799,0.002564,-0.117555,328.097534,329.197662,10.000000,19.459072,34.136353,-31.107773,28.709440,77.206289,65.000000,-1.000000,-1.000000,205.556824
462520313.059830,-0.055313,-0.006973,-0.991028,-0.053551,0.013031,0.496057,0.012886,-0.024354,0.245231,0.969073,0.878537,0.474666,0.053521,-0.475921,0.879391,0.013031,-0.040881,-0.036920,0.998482,-0.053521,-0.013031,-0.998482,-0.001792,0.006058,0.007454,0.033474,-0.011109,-0.150369,327.874695,328.974823,10.000000,19.596893,33.930313,-31.373093,28.709440,77.206289,65.000000,-1.000000,-1.000000,205.556824
462520313.093226,-0.051437,-0.009842,-0.991959,-0.053689,0.013384,0.490206,0.013003,-0.024415,0.242389,0.969785,0.881303,0.469496,0.053658,-0.470766,0.882157,0.013384,-0.041052,-0.037056,0.998470,-0.053658,-0.013384,-0.998470,0.005242,0.004198,0.004726,0.014539,0.000921,-0.210415,327.876404,328.976532,10.000000,19.700260,33.895966,-31.472603,28.709440,77.206289,65.000000,-1.000000,-1.000000,205.556824
462520313.126571,-0.054749,-0.010132,-0.990402,-0.053226,0.014368,0.482815,0.013335,-0.024120,0.238793,0.970679,0.884792,0.462939,0.053195,-0.464226,0.885600,0.014368,-0.040458,-0.037407,0.998481,-0.053195,-0.014368,-0.998481,0.002688,0.005838,0.011558,0.020647,0.006844,-0.244588,328.382141,329.482269,10.000000,19.562443,34.651413,-31.737923,28.709440,77.206289,65.000000,-1.000000,-1.000000,205.556824
462520313.159554,-0.057541,-0.008545,-0.997131,-0.053355,0.014581,0.474979,0.013359,-0.024210,0.234984,0.971606,0.888392,0.455978,0.053324,-0.457271,0.889208,0.014580,-0.040767,-0.037336,0.998471,-0.053324,-0.014580,-0.998471,0.000406,0.005562,0.004407,-0.010471,-0.011391,-0.238544,328.607208,329.707336,10.000000,19.424622,34.651413,-31.870590,28.709440,77.206289,65.000000,-1.000000,-1.000000,205.556824
462520313.192990,-0.052078,-0.007065,-0.987000,-0.053334,0.015150,0.467351,0.013541,-0.024185,0.231269,0.972495,0.891859,0.449161,0.053303,-0.450471,0.892662,0.015150,-0.040777,-0.037523,0.998463,-0.053303,-0.015150,-0.998463,0.001972,0.006849,0.005040,0.029412,0.006871,-0.232320,329.030548,330.130676,10.000000,19.080070,34.651413,-32.003250,28.709440,77.206289,65.000000,-1.000000,-1.000000,205.556824
462520313.226644,-0.045761,-0.017960,-0.996033,-0.053224,0.015822,0.463676,0.013810,-0.024079,0.229473,0.972919,0.893524,0.445853,0.053192,-0.447183,0.894303,0.015821,-0.040516,-0.037923,0.998459,-0.053192,-0.015821,-0.998459,0.001114,0.008756,0.011459,0.038177,0.001963,-0.224884,329.371094,330.471222,10.000000,19.183434,34.891769,-31.837418,28.709440,77.206289,65.000000,-1.000000,-1.000000,205.556824
462520313.259803,-0.053955,-0.011597,-0.994095,-0.052817,0.017147,0.453659,0.014289,-0.023801,0.224582,0.974060,0.897993,0.436832,0.052785,-0.438193,0.898718,0.017146,-0.039948,-0.038527,0.998459,-0.052785,-0.017146,-0.998459,0.002812,-0.004979,0.004486,0.008346,-0.000195,-0.195810,329.417847,330.517975,10.000000,18.701059,34.960449,-31.505753,28.709440,77.206289,65.000000,-1.000000,-1.000000,205.556824
462520313.293187,-0.049957,-0.010345,-0.994843,-0.052819,0.017215,0.447952,0.014254,-0.023835,0.221801,0.974696,0.900472,0.431698,0.052787,-0.433057,0.901202,0.017214,-0.040140,-0.038361,0.998457,-0.052787,-0.017214,-0.998457,-0.000421,0.006442,0.007246,0.003400,0.001135,-0.181220,329.451874,330.552002,10.000000,18.632151,35.166473,-31.572083,28.709440,77.206289,65.000000,-1.000000,-1.000000,205.556824
462520313.326154,-0.051453,-0.013306,-0.991592,-0.052529,0.017247,0.441605,0.014162,-0.023735,0.218708,0.975399,0.903207,0.425983,0.052497,-0.427327,0.903932,0.017246,-0.040107,-0.038010,0.998472,-0.052497,-0.017246,-0.998472,0.002647,0.009494,0.007795,0.007044,0.004662,-0.206848,329.546631,330.646759,10.000000,18.149776,34.960449,-32.102737,28.709440,77.206289,65.000000,-1.000000,-1.000000,205.556824
462520313.359880,-0.050018,-0.015182,-0.993347,-0.052312,0.017334,0.434797,0.014101,-0.023668,0.215387,0.976140,0.906097,0.419828,0.052281,-0.421163,0.906819,0.017334,-0.040132,-0.037724,0.998482,-0.052281,-0.017334,-0.998482,0.002033,0.000350,0.009331,-0.014194,0.001003,-0.220394,329.674652,330.774780,10.000000,17.736317,35.097778,-32.235405,28.709440,77.206289,65.000000,-1.000000,-1.000000,205.556824
462520313.393140,-0.050797,-0.011490,-0.990921,-0.052236,0.017132,0.427343,0.013906,-0.023704,0.211750,0.976937,0.909200,0.413075,0.052205,-0.414393,0.909937,0.017132,-0.040426,-0.037209,0.998489,-0.052205,-0.017132,-0.998489,-0.002880,0.007549,0.004273,0.003241,0.002118,-0.226371,329.768250,330.868378,10.000000,17.288399,34.994766,-32.268570,28.709440,77.206289,65.000000,-1.000000,-1.000000,205.556824
462520313.426624,-0.052643,-0.011581,-0.994583,-0.051995,0.017535,0.420838,0.014000,-0.023590,0.208568,0.977623,0.911886,0.407142,0.051963,-0.408463,0.912607,0.017534,-0.040283,-0.037214,0.998495,-0.051963,-0.017534,-0.998495,0.005699,0.000322,0.005850,0.002115,-0.002597,-0.192172,329.976044,331.076172,10.000000,16.978302,35.509842,-31.704750,28.709440,77.206289,65.000000,-1.000000,-1.000000,205.556824
462520313.459882,-0.052994,-0.009644,-0.992554,-0.051861,0.017519,0.414722,0.013907,-0.023568,0.205579,0.978258,0.914364,0.401563,0.051830,-0.402874,0.915088,0.017518,-0.040394,-0.036899,0.998502,-0.051830,-0.017518,-0.998502,-0.001011,0.009248,0.005323,0.004646,-0.001492,-0.195777,330.191376,331.291504,10.000000,17.081669,35.681534,-32.135910,28.709440,77.206289,65.000000,-1.000000,-1.000000,205.556824
462520313.493192,-0.047989,-0.013718,-0.990417,-0.051729,0.018292,0.408084,0.014193,-0.023471,0.202321,0.978935,0.917030,0.395453,0.051697,-0.396785,0.917729,0.018291,-0.040211,-0.037286,0.998495,-0.051697,-0.018291,-0.998495,0.000977,0.005306,0.006643,0.033236,0.003155,-0.220006,330.294861,331.394989,10.000000,17.047215,35.784546,-32.036415,28.709440,77.206289,65.000000,-1.000000,-1.000000,205.556824
462520313.526662,-0.050446,-0.017899,-0.989563,-0.051470,0.019363,0.400009,0.014597,-0.023295,0.198354,0.979745,0.920226,0.387993,0.051438,-0.389353,0.920885,0.019361,-0.039856,-0.037844,0.998488,-0.051438,-0.019361,-0.998488,0.000779,0.004927,0.008514,0.023102,0.000480,-0.268857,330.525787,331.625916,10.000000,16.668205,35.818893,-32.334908,28.709440,77.206289,65.000000,-1.000000,-1.000000,205.556824
462520313.560240,-0.055130,-0.014221,-0.994293,-0.051487,0.020271,0.387675,0.014900,-0.023306,0.192296,0.980947,0.924958,0.376570,0.051454,-0.377959,0.925600,0.020270,-0.039993,-0.038196,0.998470,-0.051454,-0.020270,-0.998470,-0.003676,0.006049,0.004176,0.018223,-0.003007,-0.237139,330.763550,331.863678,10.000000,16.254740,36.024918,-31.870583,28.709440,77.206289,65.000000,-1.000000,-1.000000,205.556824
462520313.593152,-0.042786,-0.013290,-0.994675,-0.051356,0.021156,0.380152,0.015234,-0.023214,0.188594,0.981663,0.927787,0.369564,0.051322,-0.370979,0.928400,0.021154,-0.039829,-0.038666,0.998458,-0.051322,-0.021154,-0.998458,0.005530,0.008078,0.006225,0.024396,-0.003134,-0.255390,330.901764,332.001892,10.000000,16.116917,36.368301,-31.737915,28.709440,77.206289,65.000000,-1.000000,-1.000000,205.556824
462520313.626547,-0.058014,-0.015030,-0.992844,-0.051145,0.021579,0.370361,0.015309,-0.023145,0.183782,0.982575,0.931377,0.360450,0.051111,-0.361867,0.931980,0.021578,-0.039857,-0.038593,0.998460,-0.051111,-0.021578,-0.998460,-0.000891,0.012804,0.006516,0.011679,-0.001014,-0.327490,331.220642,332.320770,10.000000,15.358902,36.643005,-31.339928,28.709440,77.206289,65.000000,-1.000000,-1.000000,205.556824
462520313.659892,-0.052002,-0.024368,-0.987564,-0.051043,0.022082,0.359680,0.015424,-0.023132,0.178526,0.983542,0.935187,0.350462,0.051009,-0.351889,0.935781,0.022081,-0.039995,-0.038599,0.998454,-0.051009,-0.022081,-0.998454,-0.000993,-0.002288,0.010890,0.001619,0.003825,-0.348355,331.558685,332.658813,10.000000,15.358902,37.123749,-31.936920,28.709440,77.206289,65.000000,-1.000000,-1.000000,205.556824
462520313.693142,-0.049454,-0.008820,-0.993332,-0.050862,0.022240,0.347755,0.015347,-0.023120,0.172658,0.984591,0.939310,0.339285,0.050827,-0.340704,0.939908,0.022238,-0.040228,-0.038205,0.998460,-0.050827,-0.022238,-0.998460,0.002106,0.014044,0.007646,-0.002199,-0.004908,-0.377578,334.951324,336.051453,10.000000,14.876530,37.192429,-32.069588,28.709440,77.206289,65.000000,-1.000000,-1.000000,205.556824
462520313.726303,-0.049652,-0.023666,-0.991501,-0.050598,0.022530,0.335432,0.015325,-0.023060,0.166586,0.985638,0.943435,0.327680,0.050564,-0.329093,0.944029,0.022528,-0.040352,-0.037894,0.998467,-0.050564,-0.022528,-0.998467,-0.001072,0.008444,0.008156,0.005226,0.002363,-0.388574,336.695312,337.795441,10.000000,14.497522,37.432800,-32.699738,28.709440,77.206289,65.000000,-1.000000,-1.000000,205.556824
462520313.759705,-0.053040,-0.013306,-0.990585,-0.050120,0.023261,0.322335,0.015497,-0.022865,0.160122,0.986711,0.947676,0.315279,0.050086,-0.316696,0.948242,0.023259,-0.040160,-0.037904,0.998474,-0.050086,-0.023259,-0.998474,0.001548,0.006321,0.008728,0.008863,0.002174,-0.420264,338.125763,339.225891,10.000000,13.463867,37.844849,-32.301750,28.709440,77.206289,65.000000,-1.000000,-1.000000,205.556824
462520313.793094,-0.047943,-0.024155,-0.994385,-0.050038,0.023764,0.307968,0.015574,-0.022897,0.153023,0.987835,0.952119,0.301610,0.050003,-0.303037,0.952683,0.023762,-0.040470,-0.037777,0.998466,-0.050003,-0.023762,-0.998466,-0.001923,0.002292,0.005821,-0.004999,-0.002927,-0.466680,338.384155,339.484283,10.000000,13.463867,38.119568,-32.898750,28.709440,77.206289,65.000000,-1.000000,-1.000000,205.556824
462520313.826575,-0.048553,-0.023682,-0.991302,-0.049811,0.024072,0.293016,0.015538,-0.022878,0.145632,0.988952,0.956536,0.287335,0.049776,-0.288757,0.957100,0.024070,-0.040724,-0.037396,0.998470,-0.049776,-0.024070,-0.998470,-0.001341,0.005988,0.005932,0.001282,0.000820,-0.449589,339.111084,340.211212,10.000000,12.843671,38.119568,-32.965080,28.709440,77.206289,65.000000,-1.000000,-1.000000,205.556824
462520313.859904,-0.048981,-0.010986,-0.992615,-0.049459,0.025215,0.278664,0.015915,-0.022735,0.138519,0.989971,0.960591,0.273537,0.049423,-0.274984,0.961118,0.025213,-0.040605,-0.037810,0.998460,-0.049423,-0.025213,-0.998460,-0.001038,0.003164,0.009599,0.021177,0.003098,-0.465320,339.203583,340.303711,10.000000,12.016746,38.050888,-33.296738,28.709440,77.206289,65.000000,-1.000000,-1.000000,205.556824
462520313.893383,-0.050034,-0.016006,-0.990677,-0.049002,0.026091,0.254355,0.016043,-0.022644,0.126469,0.991582,0.966986,0.250083,0.048965,-0.251536,0.967496,0.026088,-0.040850,-0.037544,0.998460,-0.048965,-0.026088,-0.998460,-0.001068,0.010082,0.007783,0.008591,-0.006882,-0.505577,339.400757,340.500885,10.000000,11.431006,38.291229,-32.666580,28.709440,77.206289,65.000000,-1.000000,-1.000000,205.556824
462520313.926533,-0.040421,-0.023941,-0.990036,-0.048373,0.027356,0.238175,0.016450,-0.022386,0.118432,0.992574,0.970946,0.234368,0.048336,-0.235841,0.971407,0.027353,-0.040543,-0.037958,0.998457,-0.048336,-0.027353,-0.998457,0.006939,-0.004660,0.004301,0.016073,-0.000758,-0.501921,339.514862,340.614990,10.000000,11.465464,38.531586,-32.368088,28.709440,77.206289,65.000000,-1.000000,-1.000000,205.556824
462520313.959794,-0.045532,-0.020721,-0.991364,-0.047643,0.029140,0.222331,0.017118,-0.022054,0.110548,0.993479,0.974585,0.218900,0.047604,-0.220410,0.974972,0.029136,-0.040035,-0.038888,0.998441,-0.047604,-0.029136,-0.998441,0.003339,0.005057,0.005018,0.065993,0.005243,-0.485738,339.840759,340.940887,10.000000,10.707447,39.080994,-32.235420,28.709440,77.206289,65.000000,-1.000000,-1.000000,205.556824
462520313.993215,-0.048767,-0.027542,-0.991501,-0.047338,0.030492,0.214430,0.017686,-0.021897,0.106609,0.993903,0.976310,0.211143,0.047298,-0.212692,0.976644,0.030488,-0.039756,-0.039825,0.998415,-0.047298,-0.030488,-0.998415,0.001766,0.009766,0.007052,0.062226,0.000292,-0.496698,340.318787,341.418915,10.000000,9.225873,39.115326,-32.202255,28.709440,77.206289,65.000000,-1.000000,-1.000000,205.556824
462520314.026664,-0.047989,-0.026932,-0.988312,-0.046898,0.033360,0.190348,0.018827,-0.021753,0.094602,0.995099,0.981155,0.187457,0.046854,-0.189095,0.981392,0.033354,-0.039730,-0.041585,0.998345,-0.046854,-0.033354,-0.998345,-0.006368,0.010618,0.006127,0.062293,0.005339,-0.471126,340.640839,341.740967,10.000000,8.605680,39.321350,-32.202255,28.709440,77.206289,65.000000,-1.000000,-1.000000,205.556824
462520314.059881,-0.048859,-0.015488,-0.993210,-0.046036,0.037000,0.175065,0.020435,-0.021307,0.086958,0.995774,0.983968,0.172311,0.045988,-0.174053,0.984041,0.036991,-0.038880,-0.044402,0.998257,-0.045988,-0.036991,-0.998257,0.004316,-0.001034,0.008267,0.097142,0.011226,-0.487999,341.296692,342.396820,10.000000,8.295585,39.080994,-32.500748,28.709440,77.206289,65.000000,-1.000000,-1.000000,205.556824
462520314.093218,-0.040100,-0.028732,-0.988983,-0.045031,0.040045,0.159015,0.021741,-0.020848,0.078938,0.996424,0.986668,0.156406,0.044979,-0.158219,0.986592,0.040034,-0.038115,-0.046617,0.998185,-0.044979,-0.040034,-0.998185,0.004879,0.011302,0.009202,0.089546,0.008620,-0.522191,342.019897,343.120026,10.000000,7.709848,39.596069,-32.998245,28.709440,77.206289,65.000000,-1.000000,-1.000000,205.556824
462520314.126676,-0.048782,-0.038132,-0.989059,-0.044247,0.041295,0.141505,0.022153,-0.020603,0.070205,0.997074,0.989294,0.139087,0.044195,-0.140913,0.989161,0.041283,-0.037974,-0.047069,0.998170,-0.044195,-0.041283,-0.998170,-0.002451,0.001747,0.004975,0.000926,-0.003419,-0.553249,342.390564,343.490692,10.000000,7.434205,39.802094,-33.064583,28.709440,77.206289,65.000000,-1.000000,-1.000000,205.556824
462520314.159880,-0.030380,-0.046097,-0.988098,-0.043451,0.042379,0.124554,0.022494,-0.020359,0.061749,0.997631,0.991545,0.122289,0.043398,-0.124121,0.991362,0.042366,-0.037843,-0.047395,0.998159,-0.043398,-0.042366,-0.998159,-0.000898,0.006844,0.016226,0.015994,0.015167,-0.508178,343.275391,344.375519,10.000000,6.262723,40.420166,-32.799248,28.709440,77.206289,65.000000,-1.000000,-1.000000,205.556824
462520314.192445,-0.041550,-0.044449,-0.989792,-0.041891,0.043452,0.106442,0.022803,-0.019754,0.052717,0.998154,0.993661,0.104339,0.041840,-0.106141,0.993402,0.043439,-0.037031,-0.047604,0.998180,-0.041840,-0.043439,-0.998180,0.002548,-0.006686,0.015041,-0.003046,0.012233,-0.611996,344.204224,345.304352,10.000000,5.849259,40.763550,-32.334923,28.709440,77.206289,65.000000,-1.000000,-1.000000,205.556824
462520314.226476,-0.047668,-0.032806,-0.994385,-0.041286,0.043490,0.084688,0.022593,-0.019698,0.041864,0.998674,0.995719,0.082726,0.041235,-0.084506,0.995474,0.043476,-0.037452,-0.046775,0.998203,-0.041235,-0.043476,-0.998203,-0.009607,0.018620,0.002933,0.000474,-0.001697,-0.687472,344.693787,345.793915,10.000000,5.366886,40.763550,-32.533920,28.709440,77.206289,65.000000,-1.000000,-1.000000,205.556824
462520314.259881,-0.030258,-0.077667,-0.985703,-0.040321,0.044444,0.064117,0.022850,-0.019432,0.031591,0.999051,0.997249,0.062234,0.040271,-0.064010,0.996960,0.044430,-0.037383,-0.046885,0.998201,-0.040271,-0.044430,-0.998201,0.010226,-0.007878,0.006730,0.014463,0.007319,-0.598393,351.256134,352.356262,10.000000,4.643329,40.935242,-32.699753,28.709440,77.206289,65.000000,-1.000000,-1.000000,205.556824
462520314.292678,-0.037674,-0.042664,-0.988998,-0.038666,0.047229,0.045016,0.024037,-0.018790,0.022039,0.999291,0.998322,0.043144,0.038613,-0.044951,0.997873,0.047211,-0.036494,-0.048868,0.998138,-0.038613,-0.047211,-0.998138,0.004906,-0.023116,0.009735,0.041889,0.017021,-0.597060,352.952484,354.052612,10.000000,3.575217,40.969589,-33.197250,28.709440,77.206289,65.000000,-1.000000,-1.000000,205.556824
462520314.326585,-0.048477,-0.049866,-0.996506,-0.037222,0.048983,0.024406,0.024710,-0.018304,0.011741,0.999458,0.999054,0.022565,0.037169,-0.024374,0.998503,0.048964,-0.036008,-0.049823,0.998109,-0.037169,-0.048964,-0.998109,0.001219,0.012114,0.004365,0.054120,0.006716,-0.676165,354.458740,355.558868,10.000000,2.438196,41.141281,-33.495743,28.709440,77.206289,65.000000,-1.000000,-1.000000,205.556824
462520314.359897,-0.043488,-0.050690,-0.995331,-0.036258,0.052475,0.001037,0.026239,-0.018108,0.000043,0.999492,0.999344,-0.000865,0.036200,-0.001036,0.998623,0.052450,-0.036196,-0.052454,0.997967,-0.036200,-0.052450,-0.997967,-0.010492,-0.004633,0.002255,0.066268,0.011046,-0.771278,355.448425,356.548553,10.000000,1.680182,41.278625,-33.495743,28.709440,77.206289,65.000000,-1.000000,-1.000000,205.556824
462520314.393099,-0.038147,-0.053940,-0.988449,-0.034839,0.055651,-0.025556,0.027593,-0.017766,-0.013256,0.999373,0.999017,-0.027475,0.034778,0.025514,0.998126,0.055622,-0.036241,-0.054680,0.997846,-0.034778,-0.055622,-0.997846,-0.010663,0.002720,0.014097,0.085921,0.000599,-0.869846,357.445038,358.545166,10.000000,0.233063,41.690689,-33.761078,28.709440,77.206289,65.000000,-1.000000,-1.000000,205.556824
462520314.426428,-0.033676,-0.048492,-0.987167,-0.032637,0.059882,-0.054264,0.029479,-0.017117,-0.027601,0.999038,0.997890,-0.056158,0.032573,0.054140,0.996738,0.059846,-0.035828,-0.057957,0.997676,-0.032573,-0.059846,-0.997676,0.001399,0.014329,0.005443,0.118232,0.024904,-0.886921,359.134094,0.234227,10.000000,-0.903961,41.656357,-33.860580,28.709440,77.206289,65.000000,-1.000000,-1.000000,205.556824
462520314.459782,-0.033737,-0.061493,-0.994888,-0.030502,0.063332,-0.080906,0.031015,-0.016511,-0.040899,0.998545,0.996109,-0.082704,0.030436,0.080656,0.994731,0.063290,-0.035510,-0.060589,0.997531,-0.030436,-0.063290,-0.997531,-0.001104,-0.001209,0.009250,0.050063,0.006045,-0.787183,359.898376,0.998510,10.000000,-1.489700,41.759369,-34.026413,28.709440,77.206289,65.000000,-1.000000,-1.000000,205.556824
462520314.493085,-0.023636,-0.055420,-0.985596,-0.028352,0.066424,-0.104503,0.032417,-0.015882,-0.052664,0.997960,0.993949,-0.106143,0.028285,0.104083,0.992351,0.066375,-0.035114,-0.063030,0.997394,-0.028285,-0.066375,-0.997394,-0.013295,0.028045,0.004977,0.080249,0.029746,-0.692025,1.486447,2.586581,10.000000,-2.592266,41.553345,-34.026413,28.709440,77.206289,65.000000,-1.000000,-1.000000,205.556824
462520314.526400,-0.026123,-0.047958,-0.986633,-0.026123,0.068213,-0.126104,0.033207,-0.015176,-0.063413,0.997319,0.991497,-0.127494,0.026059,0.125478,0.989752,0.068161,-0.034482,-0.064311,0.997334,-0.026059,-0.068161,-0.997334,0.002423,0.012741,0.011738,0.041656,0.021417,-0.676377,3.505651,4.605784,10.000000,-4.073843,41.175613,-34.192245,28.709440,77.206289,65.000000,-1.000000,-1.000000,205.556824
462520314.559756,-0.023468,-0.057602,-0.987015,-0.023326,0.069757,-0.159824,0.033827,-0.014402,-0.080178,0.996102,0.986728,-0.160706,0.023267,0.158757,0.984854,0.069700,-0.034116,-0.065081,0.997297,-0.023267,-0.069700,-0.997297,-0.009799,0.028364,0.007840,0.046625,0.009057,-0.688415,4.246046,5.346179,10.000000,-4.556216,41.244293,-34.059578,28.709440,77.206289,65.000000,-1.000000,-1.000000,205.556824
462520314.593050,-0.022369,-0.069061,-0.989258,-0.021348,0.071630,-0.182369,0.034685,-0.013883,-0.091375,0.995115,0.982916,-0.182820,0.021292,0.180894,0.980895,0.071568,-0.033969,-0.066494,0.997208,-0.021292,-0.071568,-0.997208,0.000357,-0.007091,0.004426,0.034043,0.010161,-0.721463,5.761353,6.861485,10.000000,-5.762149,41.622009,-34.092743,28.709440,77.206289,65.000000,-1.000000,-1.000000,205.556824
462520314.626412,-0.026215,-0.050354,-0.985748,-0.019401,0.072699,-0.205834,0.035152,-0.013376,-0.103013,0.993969,0.978419,-0.205724,0.019349,0.203844,0.976305,0.072635,-0.033833,-0.067123,0.997171,-0.019349,-0.072635,-0.997171,-0.005264,0.014591,0.007257,0.022875,0.006610,-0.706872,6.589633,7.689766,10.000000,-6.761349,41.381653,-34.457573,28.709440,77.206289,65.000000,-1.000000,-1.000000,205.556824
462520314.659740,-0.013702,-0.078674,-0.997650,-0.017337,0.075670,-0.227725,0.036595,-0.012904,-0.113857,0.992739,0.973740,-0.227005,0.017287,0.225116,0.971395,0.075598,-0.033953,-0.069721,0.996989,-0.017287,-0.075598,-0.996989,0.008940,-0.017527,0.008173,0.114126,0.011478,-0.639122,7.058500,8.158633,10.000000,-8.001740,41.381653,-35.120903,28.709440,77.206289,65.000000,-1.000000,-1.000000,205.556824
462520314.693087,0.001114,-0.074799,-0.992737,-0.015193,0.078741,-0.245909,0.038131,-0.012360,-0.122843,0.991616,0.969514,-0.244569,0.015145,0.242683,0.966911,0.078660,-0.033882,-0.072586,0.996786,-0.015145,-0.078660,-0.996786,0.009850,0.017274,-0.002908,0.068367,0.018497,-0.516318,9.044991,10.145124,10.000000,-8.484116,41.244308,-35.319901,28.709440,77.206289,65.000000,-1.000000,-1.000000,205.556824
462520314.725895,-0.010941,-0.094269,-0.978241,-0.012811,0.080062,-0.262235,0.038839,-0.011578,-0.130889,0.990568,0.965468,-0.260208,0.012770,0.258409,0.962719,0.079977,-0.033104,-0.073915,0.996715,-0.012770,-0.079977,-0.996715,0.007643,-0.005945,0.019542,0.031046,0.000343,-0.501782,10.662664,11.762797,10.000000,-9.379952,41.587692,-35.253571,28.709440,77.206289,65.000000,-1.000000,-1.000000,205.556824
462520314.759763,-0.014297,-0.086731,-0.997559,-0.011703,0.081313,-0.278614,0.039439,-0.011434,-0.138975,0.989444,0.961110,-0.275918,0.011665,0.274114,0.958261,0.081224,-0.033589,-0.074867,0.996628,-0.011665,-0.081224,-0.996628,-0.001534,0.013368,0.011627,0.038477,0.001456,-0.516376,11.901811,13.001944,10.000000,-10.206879,41.106949,-34.921906,28.709440,77.206289,65.000000,-1.000000,-1.000000,205.556824
462520314.793139,-0.010376,-0.081329,-0.987228,-0.010014,0.083739,-0.295864,0.040662,-0.011117,-0.147469,0.988168,0.956258,-0.292353,0.009979,0.290545,0.953199,0.083641,-0.033965,-0.077083,0.996446,-0.009979,-0.083641,-0.996446,-0.001679,-0.007744,0.008119,0.096948,0.020660,-0.546621,12.325089,13.425222,10.000000,-10.344699,40.832245,-34.590248,28.709440,77.206289,65.000000,-1.000000,-1.000000,205.556824
462520314.826475,-0.018036,-0.077896,-0.997925,-0.007272,0.088447,-0.315536,0.043089,-0.010533,-0.157119,0.986583,0.950406,-0.310929,0.007244,0.309113,0.946914,0.088332,-0.034324,-0.081712,0.996065,-0.007244,-0.088332,-0.996065,-0.003086,0.007796,0.008806,0.168845,0.045481,-0.661002,13.517878,14.618011,10.000000,-11.240534,40.488861,-34.590256,28.709440,77.206289,65.000000,-1.000000,-1.000000,205.556824
462520314.860468,0.005707,-0.085526,-0.982117,-0.004741,0.092479,-0.336898,0.045172,-0.010084,-0.167582,0.984771,0.943629,-0.330971,0.004721,0.329148,0.939752,0.092348,-0.035001,-0.085588,0.995716,-0.004721,-0.092348,-0.995716,-0.019266,0.007280,-0.000714,0.084170,0.038694,-0.624980,14.957243,16.057377,10.000000,-12.205278,39.939468,-34.855583,28.709440,77.206289,65.000000,-1.000000,-1.000000,205.556824
462520314.892908,0.011932,-0.090729,-0.998611,-0.002479,0.094178,-0.355298,0.046112,-0.009537,-0.176577,0.983160,0.937459,-0.348087,0.002468,0.346328,0.933388,0.094039,-0.035037,-0.087303,0.995565,-0.002468,-0.094039,-0.995565,0.023158,-0.010347,0.019156,0.049587,-0.004940,-0.554048,15.897440,16.997574,10.000000,-12.928839,39.767792,-35.021416,28.709440,77.206289,65.000000,-1.000000,-1.000000,205.556824
462520314.926571,-0.012207,-0.075378,-0.992371,0.000927,0.095245,-0.383270,0.046821,-0.008613,-0.190227,0.980585,0.927479,-0.373874,-0.000922,0.372261,0.923243,0.095101,-0.034704,-0.088548,0.995467,0.000922,-0.095101,-0.995467,-0.013129,0.019723,0.003097,0.010808,0.006131,-0.582515,16.623756,17.723890,10.000000,-13.273392,40.042496,-34.888748,28.709440,77.206289,65.000000,-1.000000,-1.000000,205.556824
462520314.959599,0.005066,-0.101028,-0.986710,0.002770,0.096592,-0.403031,0.047577,-0.008308,-0.199855,0.978634,0.919978,-0.391961,-0.002757,0.390380,0.915589,0.096441,-0.035277,-0.089800,0.995335,0.002757,-0.096441,-0.995335,0.001043,-0.009882,0.021610,0.050550,0.021689,-0.621407,17.380711,18.480844,10.000000,-13.824677,40.111176,-35.353073,28.709440,77.206289,65.000000,-1.000000,-1.000000,205.556824
462520314.993293,0.009460,-0.097412,-0.988083,0.004026,0.097310,-0.413069,0.048015,-0.008006,-0.204730,0.977607,0.916043,-0.401060,-0.004007,0.399523,0.911560,0.097157,-0.035313,-0.090601,0.995261,0.004007,-0.097157,-0.995261,-0.008173,0.005497,0.003257,0.044331,0.019283,-0.617770,17.847445,18.947578,10.000000,-14.134771,40.145508,-35.187248,28.709440,77.206289,65.000000,-1.000000,-1.000000,205.556824
462520315.026556,0.003967,-0.092682,-0.993042,0.007614,0.098852,-0.447820,0.049016,-0.007263,-0.221587,0.973881,0.901693,-0.432311,-0.007577,0.430887,0.896993,0.098691,-0.035869,-0.092254,0.995089,0.007577,-0.098691,-0.995089,-0.003610,0.006009,0.002047,0.026261,0.008492,-0.810565,19.842091,20.942225,10.000000,-15.650799,39.252716,-35.585251,28.709440,77.206289,65.000000,-1.000000,-1.000000,205.556824
462520315.059886,-0.003281,-0.094635,-0.984451,0.009759,0.099106,-0.474196,0.049291,-0.006897,-0.234357,0.970876,0.890059,-0.455742,-0.009711,0.454382,0.885295,0.098944,-0.036496,-0.092478,0.995046,0.009711,-0.098944,-0.995046,-0.023810,0.012671,0.008672,0.033809,-0.003749,-0.798185,21.852240,22.952374,10.000000,-17.166826,39.115372,-35.452583,28.709440,77.206289,65.000000,-1.000000,-1.000000,205.556824
462520315.093388,0.004684,-0.087204,-0.996338,0.012361,0.100474,-0.500427,0.050180,-0.006454,-0.246993,0.967696,0.877905,-0.478676,-0.012298,0.477381,0.872953,0.100305,-0.037278,-0.093929,0.994881,0.012298,-0.100305,-0.994881,0.008317,0.001047,0.007378,0.048682,-0.000274,-0.823726,22.511944,23.612078,10.000000,-17.683657,39.012375,-35.618416,28.709440,77.206289,65.000000,-1.000000,-1.000000,205.556824
462520315.126552,-0.010956,-0.083542,-0.986832,0.013588,0.100614,-0.514064,0.050358,-0.006220,-0.253553,0.965990,0.871344,-0.490487,-0.013519,0.489234,0.866350,0.100444,-0.037554,-0.094135,0.994851,0.013519,-0.100444,-0.994851,-0.008835,0.013240,-0.001487,0.026151,-0.005235,-0.851910,23.836084,24.936218,10.000000,-18.648407,39.081055,-35.684746,28.709440,77.206289,65.000000,-1.000000,-1.000000,205.556824
462520315.159887,0.014664,-0.104950,-0.982483,0.015749,0.099516,-0.555601,0.049986,-0.006076,-0.273517,0.960548,0.850303,-0.526059,-0.015671,0.524845,0.845380,0.099352,-0.039017,-0.092704,0.994929,0.015671,-0.099352,-0.994929,-0.014908,-0.001448,0.010111,-0.004851,-0.044221,-0.824917,25.592684,26.692818,10.000000,-19.682064,38.256943,-35.684746,28.709440,77.206289,65.000000,-1.000000,-1.000000,205.556824
