Timestamp,Accel_X,Accel_Y,Accel_Z,Roll,Pitch,Yaw,UserAcc_X,UserAcc_Y,UserAcc_Z,RotRate_X,RotRate_Y,RotRate_Z,MagHeading,TrueHeading,HeadingAccuracy,MagX,MagY,MagZ
461772259.370702,0.000000,0.000000,0.000000,0.000000,0.000000,0.000000,0.000000,0.000000,0.000000,0.000000,0.000000,0.000000,0.000000,0.000000,0.000000,0.000000,0.000000,0.000000
461772259.403658,0.000000,0.000000,0.000000,0.000000,0.000000,0.000000,0.000000,0.000000,0.000000,0.000000,0.000000,0.000000,0.000000,0.000000,0.000000,0.000000,0.000000,0.000000
461772259.437042,0.011368,-0.165527,-0.965820,0.000000,0.000000,0.000000,0.000000,0.000000,0.000000,0.000000,0.000000,0.000000,0.000000,0.000000,0.000000,0.000000,0.000000,0.000000
461772259.470370,0.057892,-0.267059,-0.912811,0.000000,0.000000,0.000000,0.000000,0.000000,0.000000,0.000000,0.000000,0.000000,0.000000,0.000000,0.000000,0.000000,0.000000,0.000000
461772259.503674,0.019241,-0.217728,-0.866638,0.000000,0.000000,0.000000,0.000000,0.000000,0.000000,0.000000,0.000000,0.000000,0.000000,0.000000,0.000000,0.000000,0.000000,0.000000
461772259.537053,0.065125,-0.145981,-1.059647,0.000000,0.000000,0.000000,0.000000,0.000000,0.000000,0.000000,0.000000,0.000000,0.000000,0.000000,0.000000,0.000000,0.000000,0.000000
461772259.570378,0.081131,-0.168320,-0.999603,0.000000,0.000000,0.000000,0.000000,0.000000,0.000000,0.000000,0.000000,0.000000,0.000000,0.000000,0.000000,0.000000,0.000000,0.000000
461772259.603865,0.094681,-0.193314,-0.981277,0.000000,0.000000,0.000000,0.000000,0.000000,0.000000,0.000000,0.000000,0.000000,0.000000,0.000000,0.000000,0.000000,0.000000,0.000000
461772259.637117,0.049347,-0.164658,-0.957840,0.000000,0.000000,0.000000,0.000000,0.000000,0.000000,0.000000,0.000000,0.000000,0.000000,0.000000,0.000000,0.000000,0.000000,0.000000
461772259.669990,0.099426,-0.143326,-1.011414,0.000000,0.000000,0.000000,0.000000,0.000000,0.000000,0.000000,0.000000,0.000000,0.000000,0.000000,0.000000,0.000000,0.000000,0.000000
461772259.703708,-0.017944,-0.149063,-0.943756,0.000000,0.000000,0.000000,0.000000,0.000000,0.000000,0.000000,0.000000,0.000000,0.000000,0.000000,0.000000,0.000000,0.000000,0.000000
461772259.736993,-0.010635,-0.139160,-0.901031,0.000000,0.000000,0.000000,0.000000,0.000000,0.000000,0.000000,0.000000,0.000000,0.000000,0.000000,0.000000,0.000000,0.000000,0.000000
461772259.771451,0.016296,-0.139633,-0.980331,0.008887,0.164469,-0.003120,0.003531,0.037325,0.084962,-0.259307,0.024691,-0.130533,0.000000,0.000000,0.000000,0.000000,0.000000,0.000000
461772259.803686,0.068680,-0.211853,-0.938431,0.012701,0.156678,-0.007096,0.021497,0.013429,-0.021591,-0.044908,0.124588,-0.088408,0.000000,0.000000,0.000000,0.000000,0.000000,0.000000
461772259.836200,0.038589,-0.168549,-0.955887,0.020329,0.161813,-0.006145,0.034488,-0.039087,0.050530,-0.164751,0.019787,0.164260,0.000000,0.000000,0.000000,0.000000,0.000000,0.000000
461772259.870385,0.035706,-0.126968,-1.025665,0.021395,0.151432,0.000895,0.016571,0.020666,-0.032102,-0.209437,-0.010386,0.216677,0.000000,0.000000,0.000000,0.000000,0.000000,0.000000
461772259.903819,-0.005753,-0.100418,-0.998276,0.015425,0.147992,0.007064,0.010043,0.025458,-0.035127,-0.046907,-0.237147,0.177478,0.000000,0.000000,0.000000,0.000000,0.000000,0.000000
461772259.937121,0.034988,-0.149857,-1.004196,0.009506,0.147676,0.012066,-0.015155,0.046721,-0.009205,0.219308,-0.000368,0.162515,0.000000,0.000000,0.000000,0.000000,0.000000,0.000000
461772259.970708,-0.014328,-0.124847,-1.018021,0.013240,0.155052,0.020630,0.006863,-0.006412,-0.010160,0.169709,0.113735,0.331797,0.000000,0.000000,0.000000,0.000000,0.000000,0.000000
461772260.003172,0.009964,-0.151016,-0.998199,0.013385,0.158794,0.031567,-0.025530,0.036835,-0.051992,0.284228,0.125239,0.297185,0.000000,0.000000,0.000000,0.000000,0.000000,0.000000
461772260.037150,-0.005051,-0.160950,-0.969589,0.015146,0.168100,0.039942,-0.004968,0.016293,-0.012408,0.225494,0.057594,0.224210,348.997833,350.092377,10.000000,4.145432,14.480499,-43.032059
461772260.070554,-0.005432,-0.142715,-1.000702,0.011621,0.170406,0.047189,-0.015511,0.012295,-0.002160,0.053829,-0.112153,0.235570,348.625458,349.720001,10.000000,4.472758,14.188614,-43.231052
461772260.103788,-0.012939,-0.161530,-0.960907,0.007806,0.175094,0.057127,-0.018108,0.023154,0.014023,0.166515,0.057326,0.150579,348.767517,349.862061,10.000000,4.300483,13.948257,-43.595882
461772260.137102,-0.011108,-0.145584,-0.997726,0.007611,0.175266,0.061741,-0.018603,0.028786,-0.013075,-0.013212,0.032143,0.122626,347.820740,348.915283,10.000000,4.576124,13.467514,-43.728546
461772260.170458,0.019165,-0.167175,-0.968216,0.003780,0.173010,0.063339,0.014938,0.007720,0.006030,-0.121484,-0.208471,0.019274,347.418030,348.512573,10.000000,4.541667,12.952454,-43.828045
461772260.203778,-0.012283,-0.134232,-0.996002,-0.003832,0.168266,0.066302,-0.004828,0.012611,-0.002137,-0.060028,-0.187091,0.158610,348.079956,349.174500,10.000000,4.300483,13.261490,-43.396885
461772260.237129,-0.006683,-0.133194,-0.968384,-0.009777,0.165579,0.071664,-0.003907,0.035810,0.000589,0.122668,-0.120712,0.120316,347.775543,348.870087,10.000000,4.093754,13.398834,-43.396889
461772260.270448,-0.022247,-0.146194,-0.982681,-0.016245,0.164245,0.074282,-0.005337,0.009928,0.025108,-0.025942,-0.168158,0.083060,346.663849,347.758392,10.000000,4.403852,13.433167,-43.231056
461772260.303781,-0.012375,-0.145645,-0.984512,-0.020647,0.161131,0.077481,0.008018,0.023228,-0.009242,0.018597,-0.109438,0.085257,345.145752,346.240295,10.000000,4.886226,13.227158,-43.894379
461772260.337284,-0.017609,-0.140808,-1.004486,-0.023680,0.160009,0.080074,0.005477,0.014445,-0.009465,0.048402,-0.106956,0.100091,343.988953,345.083496,10.000000,4.989589,12.986771,-43.794880
461772260.370412,0.002823,-0.157135,-1.001068,-0.023905,0.165017,0.084348,0.012028,0.025170,-0.017254,0.330938,0.077348,0.134567,344.097290,345.191833,10.000000,4.713947,12.780746,-43.993874
461772260.403900,-0.026489,-0.150955,-0.980621,-0.020192,0.173790,0.088158,0.015934,0.002766,-0.000326,0.252363,-0.011718,0.112858,344.951721,346.046265,10.000000,4.059297,12.128326,-43.828045
461772260.437146,0.011307,-0.192902,-0.991470,-0.022974,0.179497,0.091489,-0.002833,0.028556,-0.008132,0.296879,0.005032,0.075215,345.347687,346.442230,10.000000,3.990388,11.990982,-44.358704
461772260.470388,-0.001602,-0.193573,-1.028748,-0.017973,0.190413,0.093374,0.028954,-0.003637,-0.009703,0.367532,0.141132,0.073153,345.269135,346.363678,10.000000,3.990388,11.647598,-44.557701
461772260.503060,-0.005646,-0.194656,-0.979874,-0.016339,0.202056,0.096288,0.011703,0.021606,-0.052106,0.369211,-0.036742,0.072487,343.888611,344.983154,10.000000,4.334941,10.892166,-44.358707
461772260.537119,0.011017,-0.227997,-0.954285,-0.019306,0.213137,0.096016,0.018578,-0.004827,0.020037,0.351368,-0.091251,-0.038129,344.908813,346.003357,10.000000,4.093754,10.171051,-44.126545
461772260.570683,0.014694,-0.234268,-0.957245,-0.020974,0.221812,0.096302,0.031475,-0.007999,0.021001,0.183259,-0.066655,0.031082,344.830170,345.924713,10.000000,4.059297,9.518631,-44.226040
461772260.603810,0.030746,-0.220627,-0.904587,-0.021480,0.229225,0.099060,0.038449,-0.017925,0.037812,0.261053,-0.002197,0.178628,343.483734,344.578278,10.000000,4.713944,9.346939,-44.391869
461772260.637133,0.024597,-0.206238,-0.839218,-0.020020,0.241839,0.109778,0.050182,0.018862,0.066118,0.468732,0.238095,0.423128,341.805084,342.899628,10.000000,5.230775,8.488480,-44.557697
461772260.670439,0.054550,-0.221634,-0.880295,-0.009421,0.260124,0.122407,0.033701,0.050963,0.127097,0.688428,0.469463,0.272436,338.555817,339.650360,10.000000,6.677894,7.458344,-44.756699
461772260.703924,0.171234,-0.212433,-0.826675,0.005370,0.286496,0.130551,0.105292,0.049042,0.111112,0.910240,0.553176,0.279397,337.023163,338.117706,10.000000,7.332545,6.462540,-44.524536
461772260.737074,0.373474,-0.288162,-0.713348,0.043326,0.353077,0.155729,0.221200,0.082603,0.140512,1.605307,1.430804,0.657834,332.096619,333.191162,10.000000,9.503224,3.406464,-44.226040
461772260.770484,0.346161,0.012054,-0.688171,0.080651,0.410043,0.174307,0.329085,0.217222,0.266402,2.093201,1.188791,0.567593,323.408630,324.503174,10.000000,11.777272,-0.851456,-43.496384
461772260.803736,0.329407,-0.180695,-0.634033,0.140751,0.497394,0.117677,0.108402,0.683268,0.016470,3.183357,0.739936,-2.734424,318.864471,319.959015,10.000000,13.396668,-3.907532,-42.866230
461772260.837109,-0.165604,-0.602859,-0.345383,0.220410,0.587714,-0.000117,0.483200,0.096910,0.922276,3.383383,1.238449,-1.849681,310.115631,311.210175,10.000000,17.462383,-9.813690,-41.738583
461772260.870482,0.363983,-0.262695,-0.364655,0.364392,0.627019,-0.060144,-0.439363,0.206164,0.663624,-0.232771,3.283947,-1.757396,302.561554,303.656097,10.000000,23.078583,-14.105949,-40.047115
461772260.903921,0.419708,-0.243683,-0.788177,0.471078,0.568601,-0.123379,0.075037,0.245989,-0.003202,-0.887799,2.109431,-2.308253,306.481781,307.576324,10.000000,25.800545,-14.346313,-39.151630
461772260.937171,0.563293,-0.280655,-0.726303,0.549135,0.493106,-0.188852,0.010599,0.220938,-0.006927,-1.226802,0.807419,-2.796862,313.050293,314.144836,10.000000,31.106651,-11.118546,-37.161663
461772260.970506,0.703094,-0.380295,-0.768417,0.650728,0.428594,-0.262132,0.129552,0.161702,-0.022568,0.129677,3.198510,-2.717598,313.920532,315.015076,10.000000,35.895927,-6.414238,-33.811886
461772261.003798,0.558701,-0.293076,-0.577042,0.815270,0.400457,-0.355058,0.130033,0.049354,0.009521,1.533332,4.272041,-2.508942,311.269073,312.363617,10.000000,38.686806,-4.388298,-31.656090
461772261.036473,0.910599,-0.399734,-0.610992,0.980592,0.353815,-0.456422,-0.065054,0.100386,-0.059759,1.247777,3.293902,-3.199234,310.750519,311.845062,10.000000,44.475277,-1.091850,-25.885193
461772261.071017,0.937576,-0.348465,-0.576447,1.107230,0.232512,-0.572833,0.132002,-0.199097,-0.148677,0.046185,0.783008,-3.289541,320.100830,321.195374,10.000000,48.644352,3.269089,-21.474106
461772261.103743,0.918335,-0.250565,-0.561813,1.107921,0.125565,-0.607044,0.001905,-0.153955,-0.127122,-0.846045,-0.789567,-3.442954,326.465363,327.559906,10.000000,49.471279,6.428177,-20.213793
461772261.137162,1.095200,-0.314133,-0.685455,1.085096,0.021235,-0.635051,0.206687,-0.271262,-0.116789,-0.389384,-0.502974,-3.171473,338.372742,339.467285,10.000000,48.299809,13.501831,-19.616802
461772261.170414,1.016495,-0.132156,-0.657898,1.077277,-0.056429,-0.686591,0.142428,-0.319994,-0.078204,0.551655,-0.018156,-2.606677,345.414215,346.508759,10.000000,45.887943,20.506790,-19.882128
461772261.203910,0.987610,-0.033417,-0.584488,1.073674,-0.114378,-0.731839,0.133147,-0.194497,-0.116306,0.223498,-0.289988,-2.092844,348.765503,349.860046,10.000000,44.130730,23.425507,-20.246956
461772261.237155,1.107544,-0.078979,-0.698990,1.043602,-0.174565,-0.761301,0.184419,-0.179356,-0.031208,-0.334726,-0.953571,-2.041697,353.384064,354.478607,10.000000,41.581043,27.614761,-20.644951
461772261.270468,0.954422,-0.048386,-0.680756,1.024823,-0.223041,-0.798932,0.170484,-0.308690,-0.329519,0.910620,0.124498,-1.807455,359.753754,0.848305,10.000000,38.273338,30.705185,-21.573601
461772261.303842,1.005188,-0.149918,-0.615952,1.020814,-0.242662,-0.875644,0.132405,-0.334221,-0.141811,1.883997,0.657456,-1.613781,3.649526,4.744077,10.000000,36.206028,32.284729,-22.701248
461772261.337155,0.942749,-0.235153,-0.483826,1.019486,-0.249979,-0.944619,0.213411,-0.510613,-0.037475,1.419637,0.172268,-0.954899,6.244253,7.338804,10.000000,35.241280,32.422073,-23.364569
461772261.370453,0.829666,0.028717,-0.580322,1.012146,-0.248909,-0.967942,0.120911,-0.481500,0.029882,1.123802,-0.223104,-0.562807,10.412210,11.506761,10.000000,34.104259,31.563644,-24.790712
461772261.403794,0.868774,0.258179,-0.567139,0.977102,-0.233773,-1.010432,0.018984,-0.117789,-0.051325,0.929917,-0.608412,-0.262745,16.691599,17.786150,10.000000,32.967236,29.881088,-26.482180
461772261.437065,1.037567,0.092499,0.100021,0.947389,-0.227932,-1.065717,0.149214,0.029637,0.290980,1.977369,-0.211815,-1.154193,17.724340,18.818892,10.000000,32.484863,29.056976,-27.477163
461772261.470446,0.737137,0.457092,-0.188675,0.981070,-0.211724,-1.139383,0.050915,-0.079943,0.708251,1.830659,2.187114,-0.437440,19.106071,20.200623,10.000000,32.278130,26.584641,-28.538475
461772261.503774,0.901230,0.339020,-0.643677,1.017323,-0.210721,-1.171551,-0.094750,0.247928,0.325343,0.279125,0.536067,-0.898897,21.176281,22.270832,10.000000,32.588230,24.902084,-29.234966
461772261.537050,0.880051,0.118378,-0.790741,1.003005,-0.229566,-1.208615,0.120037,-0.210618,-0.298130,1.196131,-0.336456,-1.029598,24.569389,25.663940,10.000000,32.622684,24.180984,-29.400799
461772261.570473,0.689270,0.380951,-0.953674,0.976277,-0.214316,-1.268504,-0.017977,-0.089434,-0.253653,1.832616,-0.554955,-0.288098,30.781847,31.876398,10.000000,32.036945,22.635773,-30.428947
461772261.603793,0.842102,0.697540,-0.913376,0.953225,-0.185615,-1.301540,-0.112013,0.196400,-0.384564,1.033669,-0.536163,0.242422,36.342087,37.436638,10.000000,30.589821,20.300797,-32.153587
461772261.636815,1.175934,0.265015,-0.988327,0.931446,-0.178700,-1.328072,0.104155,0.655898,-0.874940,0.680263,-1.153778,-0.769192,38.157505,39.252056,10.000000,30.141903,18.686905,-33.115402
461772261.670447,1.351593,0.250488,-0.467148,0.920199,-0.177472,-1.357939,0.484339,0.011981,-0.185239,0.905869,0.764083,-0.191203,40.166519,41.261070,10.000000,29.556164,16.729630,-33.944557
461772261.704117,1.169617,0.531784,-0.651321,0.981716,-0.162351,-1.365574,0.531074,0.088850,0.081142,-0.055290,2.611762,0.484557,40.476673,41.571224,10.000000,31.623482,15.356094,-32.750576
461772261.737207,1.025940,0.486649,-0.713608,1.097910,-0.174037,-1.363540,0.219108,0.607739,-0.410401,0.208494,1.511312,-1.245884,35.098946,36.193497,10.000000,34.793362,15.562119,-29.964622
461772261.770446,0.994568,0.121094,-0.355988,1.142971,-0.205319,-1.392652,0.248111,-0.098212,-0.263728,0.461828,2.237365,-0.674108,36.073944,37.168495,10.000000,36.206028,15.665131,-28.803810
461772261.803836,0.697632,0.151260,-0.096619,1.196054,-0.210054,-1.416875,-0.073981,-0.074907,0.111024,0.486308,1.322381,-0.331735,40.928337,42.022888,10.000000,38.824623,16.420578,-26.946510
461772261.837123,0.471481,0.265762,-0.199951,1.230880,-0.229787,-1.421734,-0.421618,-0.013384,0.138869,-0.448733,1.135300,-0.755487,45.785538,46.880089,10.000000,40.547382,17.176010,-24.492220
461772261.870485,0.486053,0.353333,-0.145813,1.264812,-0.263977,-1.406109,-0.472705,0.053943,0.054331,-0.846329,0.601548,-1.066755,45.902534,46.997086,10.000000,41.270943,17.897110,-23.464071
461772261.903816,0.588943,0.456131,-0.285889,1.282288,-0.316586,-1.396825,-0.406236,-0.083785,0.097837,-0.593696,0.609749,-1.601719,45.840981,46.935532,10.000000,41.236488,20.815826,-21.042946
461772261.937114,0.596146,0.321930,-0.168350,1.328184,-0.379369,-1.393002,-0.312751,0.085797,-0.062731,-0.631012,1.918826,-2.151861,42.057007,43.151558,10.000000,40.857479,24.009262,-18.887152
461772261.970688,1.000076,0.504517,-0.310944,1.412836,-0.456608,-1.394991,-0.319988,-0.329472,-0.160996,-0.123009,2.919283,-1.684576,40.135654,41.230206,10.000000,40.891933,26.103882,-17.129349
461772262.003809,0.893356,0.885147,0.179062,1.489570,-0.467327,-1.406388,0.073700,0.134978,-0.135555,0.497001,2.572377,0.023122,42.583630,43.678181,10.000000,42.201233,28.232849,-12.817755
461772262.037420,1.038467,0.697220,0.215775,1.553676,-0.475155,-1.416867,0.004265,0.427671,0.194285,-0.086815,1.147638,-0.668661,57.009232,58.103783,10.000000,43.717262,30.018417,-9.633808
461772262.070768,0.931427,0.548889,-0.017838,1.553922,-0.536470,-1.375714,0.113505,0.124408,0.240761,-1.109298,-1.110299,-1.481156,61.117081,62.211632,10.000000,43.510536,30.567825,-8.970490
461772262.103785,0.688248,0.519485,-0.082825,1.549545,-0.560076,-1.356013,-0.056176,0.070495,0.004758,-1.103354,-0.930931,-1.441417,65.424698,66.519249,10.000000,41.649956,33.246170,-8.439835
461772262.137139,0.767014,0.474304,-0.190689,1.583541,-0.651900,-1.272018,-0.101234,-0.202157,-0.050521,-1.525290,0.785625,-1.854595,61.058258,62.152809,10.000000,38.342251,37.504089,-7.643848
461772262.170503,0.554428,0.738968,0.103699,1.615991,-0.699266,-1.275516,-0.396034,0.148840,-0.211533,1.458147,1.198081,-1.834683,58.964218,60.058769,10.000000,37.170773,39.220993,-6.648869
461772262.203822,0.757141,0.781754,0.008102,1.617027,-0.750559,-1.359093,-0.129040,0.066106,0.071779,1.571011,0.721043,-1.227592,65.666649,66.761200,10.000000,34.689995,41.968048,-5.454884
461772262.237162,0.652634,0.698212,0.041199,1.602950,-0.775700,-1.385743,0.043579,0.081538,-0.014849,1.131825,0.221250,-1.646879,68.582489,69.677040,10.000000,32.691597,43.616287,-5.653881
461772262.270404,0.718246,0.534103,-0.065842,1.587727,-0.852588,-1.428469,0.038941,-0.157939,-0.000154,0.079026,0.708612,-1.369414,74.406776,75.501328,10.000000,31.623482,44.543411,-6.217705
461772262.303804,0.801010,0.629990,0.076462,1.602209,-0.890419,-1.430159,0.106942,-0.175270,0.016878,0.200175,0.461569,-1.112260,79.592766,80.687317,10.000000,29.314980,46.088608,-6.847862
461772262.337179,0.911667,0.618958,0.044510,1.603977,-0.907779,-1.433201,0.125060,-0.155036,0.027860,0.093963,0.127435,-1.035321,86.235489,87.330040,10.000000,27.419945,47.015747,-6.881031
461772262.370402,-0.153809,0.622635,-0.664413,1.608195,-0.925658,-1.422706,0.311785,-0.232320,0.004708,-0.330773,-0.380966,-0.100178,88.071037,89.165588,10.000000,25.835003,48.183243,-7.013691
461772262.403525,0.235611,0.742538,0.073624,1.578470,-0.958399,-1.422458,-0.244918,-0.562169,-0.149217,0.263187,-2.732657,-1.682644,91.498840,92.593391,10.000000,24.939171,48.801331,-7.544350
461772262.437105,0.359161,0.759644,0.514099,1.441905,-1.041147,-1.469834,-0.254503,-0.125588,0.321943,1.135706,-2.277163,-3.393436,87.471619,88.566170,10.000000,20.632263,50.346527,-9.302151
461772262.470451,0.369476,0.776459,0.021805,1.330520,-1.157984,-1.585634,-0.005354,-0.015453,0.359570,0.129655,1.042897,-3.944170,86.651375,87.745926,10.000000,13.706763,51.823074,-11.059952
461772262.503790,0.013733,0.515762,-0.190353,1.316161,-1.291567,-1.626748,0.064129,-0.251185,-0.023180,-0.290074,1.062118,-4.143988,86.020248,87.114799,10.000000,9.882234,53.093582,-11.292114
461772262.537156,-0.160934,0.455505,-0.253357,1.014342,-1.414619,-2.015853,-0.172222,-0.535116,-0.058043,1.673487,3.206442,-4.700582,95.164268,96.258820,10.000000,2.853367,54.604446,-11.623775
461772262.570436,0.016846,0.158844,0.051117,-0.030467,-1.475807,3.111909,-0.028330,-0.755319,0.016250,0.279131,2.566277,-4.425472,112.237839,113.332390,10.000000,-3.245211,55.188202,-12.386597
461772262.603774,-1.034027,5.013519,-0.933563,-0.687607,-1.393929,2.310299,0.136528,-0.765161,0.233668,1.133776,5.661572,-3.233413,122.669548,123.764099,10.000000,-5.071340,54.329758,-12.884087
461772262.637072,-0.005692,0.276993,-0.104523,-0.541789,-1.381612,2.256293,-0.937051,4.031361,-0.772438,0.003945,2.697506,-0.407664,151.603271,152.697815,10.000000,-6.104995,52.681534,-14.011734
461772262.670444,-0.102402,0.815063,-0.205231,-0.489874,-1.381832,2.293868,0.082691,-0.705207,0.061227,0.132001,-0.116029,0.475364,172.784821,173.879364,10.000000,-3.693130,51.788742,-14.675056
461772262.704552,-0.007660,1.053268,-0.210083,-0.411921,-1.387730,2.375767,-0.009985,0.144731,-0.099219,0.014873,-0.062348,0.544696,175.467239,176.561783,10.000000,-2.693926,51.960434,-14.973553
461772262.737118,-0.021637,0.893738,-0.200150,-0.354629,-1.403375,2.465833,0.053592,-0.001841,-0.021708,-0.469894,-0.888723,0.062434,175.203217,176.297760,10.000000,-2.142641,52.372498,-15.371548
461772262.770454,-0.106537,0.769989,-0.277863,-0.472897,-1.406024,2.368819,0.014132,-0.186239,-0.080033,0.055715,-0.611796,-0.702487,167.222763,168.317307,10.000000,-3.383028,52.303818,-15.039886
461772262.803680,-0.197830,1.097046,-0.263687,-0.604250,-1.374125,2.278423,-0.042469,-0.153574,-0.209984,0.936123,-2.085270,-1.015364,158.412567,159.507111,10.000000,-5.863808,52.029114,-14.708223
461772262.837071,-0.201874,0.944977,-0.063492,-0.631990,-1.324891,2.341862,-0.064031,0.036140,0.019368,1.751520,-2.896627,-0.144586,157.377563,158.472107,10.000000,-7.345385,51.788742,-15.272045
461772262.870480,-0.183197,0.932953,-0.045303,-0.594614,-1.285417,2.466712,-0.044748,-0.004690,0.175723,1.380536,-2.214595,0.164211,154.639145,155.733688,10.000000,-11.204369,50.895950,-17.195681
461772262.903879,-0.068756,1.126465,0.038788,-0.582097,-1.263986,2.540758,0.072812,0.209662,0.403526,0.391047,-1.541968,0.485454,147.601379,148.695923,10.000000,-13.685143,49.247742,-19.185646
461772262.937144,-0.071503,0.994431,-0.124695,-0.570514,-1.295618,2.588263,0.024477,0.136454,0.101197,-0.756535,-0.747394,0.982399,145.030136,146.124680,10.000000,-14.374249,49.041702,-19.583641
461772262.970508,-0.004807,1.033310,0.008072,-0.535904,-1.315677,2.641087,0.057358,0.026797,0.092287,-0.028536,-0.241625,0.490032,143.275848,144.370392,10.000000,-13.926332,48.938705,-19.086147
461772263.003757,0.081680,1.139160,-0.020752,-0.487449,-1.317362,2.676625,0.144199,0.170355,0.257691,0.092356,0.818414,0.087544,140.971161,142.065704,10.000000,-12.996040,49.316437,-18.389656
461772263.037358,0.126785,1.023117,-0.211212,-0.475254,-1.316398,2.655285,0.239237,0.143284,0.171634,-0.160159,1.160225,-0.228900,140.610519,141.705063,10.000000,-12.410301,49.213409,-18.356491
461772263.070668,0.149582,0.999573,-0.224854,-0.455228,-1.334961,2.616542,0.252312,0.027253,-0.014994,-0.549172,0.693193,0.221752,142.919708,144.014252,10.000000,-10.928725,49.247742,-18.522320
461772263.103798,0.149216,0.976166,-0.218307,-0.424295,-1.354466,2.648810,0.242480,-0.001182,-0.046604,-0.352880,-0.575807,0.601906,147.270920,148.365463,10.000000,-9.550518,49.316422,-18.124329
461772263.137159,0.106155,0.955292,-0.265442,-0.380599,-1.372135,2.722726,0.205592,-0.024185,-0.026711,-0.325969,-0.850707,0.624372,148.766418,149.860962,10.000000,-8.792500,49.659805,-17.527336
461772263.169580,-0.007172,0.954010,-0.309677,-0.324917,-1.383334,2.800960,0.052322,-0.028470,-0.133062,0.153211,-0.568646,0.534942,144.583069,145.677612,10.000000,-8.413491,50.037506,-17.029848
461772263.203828,-0.234863,0.987686,-0.237885,-0.241726,-1.366582,2.908609,-0.117424,-0.018924,-0.068998,1.009242,-0.856288,0.484569,143.346207,144.440750,10.000000,-7.896660,49.591110,-16.996685
461772263.237092,-0.312241,0.955490,-0.007126,-0.195214,-1.329186,2.988962,-0.213613,0.020089,0.103206,1.208027,-0.957015,0.183305,141.848343,142.942886,10.000000,-8.000027,49.007370,-17.361513
461772263.270455,-0.307861,1.007080,0.119461,-0.169773,-1.297664,3.017633,-0.283510,0.016729,0.380739,0.997375,1.138076,-0.179570,139.312561,140.407104,10.000000,-7.758840,47.393478,-18.787651
461772263.303823,-0.022049,1.034454,0.031540,-0.137989,-1.275681,2.971533,-0.034914,0.048007,0.328018,0.334217,2.532894,-0.604806,138.409348,139.503891,10.000000,-7.379833,46.191635,-20.611786
461772263.337139,0.105820,1.061890,0.096268,-0.122998,-1.260728,2.918554,0.102285,0.057880,0.310372,0.475777,1.375644,-0.481170,140.638718,141.733261,10.000000,-6.380632,45.539200,-21.175606
461772263.370410,-0.012329,0.969055,0.086197,-0.156936,-1.251328,2.878124,0.131452,0.121703,0.442740,-0.012057,-0.499220,-0.371054,146.201172,147.295715,10.000000,-5.105791,44.337357,-21.606768
461772263.403732,-0.029037,0.959320,-0.042542,-0.224175,-1.258575,2.829220,0.055956,0.017401,0.385684,-0.514661,-0.662061,-0.492835,149.536484,150.631027,10.000000,-4.761239,44.268692,-21.275106
461772263.437114,-0.010147,0.677765,-0.119461,-0.333750,-1.280490,2.741623,0.065283,-0.106700,0.187062,-1.102173,-0.867813,-0.677059,147.323547,148.418091,10.000000,-6.139446,44.406052,-20.744452
461772263.470419,0.103439,0.628296,-0.138046,-0.472302,-1.304007,2.613899,0.078022,-0.275230,0.068758,-0.875585,-0.122475,-0.640053,147.713013,148.807556,10.000000,-6.863006,44.989792,-20.246960
461772263.503791,0.194016,0.673172,-0.124496,-0.564597,-1.315322,2.511203,0.238655,-0.339248,0.075439,-0.720416,0.441136,-0.455378,153.131241,154.225784,10.000000,-7.896664,45.333176,-18.853981
461772263.537116,0.272537,0.951385,-0.247681,-0.609012,-1.335638,2.442160,0.374727,-0.193486,0.047446,-0.803904,0.804710,0.205277,163.937561,165.032104,10.000000,-7.035284,46.122940,-17.361507
461772263.570436,0.181839,0.967163,-0.043640,-0.585095,-1.350238,2.448794,0.379705,-0.071128,-0.013540,0.065499,0.109467,0.137108,167.718704,168.813248,10.000000,-6.621822,46.054276,-16.565521
461772263.603768,0.103271,1.047180,0.003510,-0.584748,-1.340560,2.458650,0.307807,-0.006449,0.146651,0.308062,-0.362475,-0.011279,167.812408,168.906952,10.000000,-5.932717,45.916916,-15.835869
461772263.637219,-0.240250,1.683365,1.537384,-0.547551,-1.328571,2.501227,0.207102,0.103550,0.269463,0.527896,0.150018,0.080457,166.223938,167.318481,10.000000,-5.415886,45.127136,-16.134361
461772263.670438,0.649139,1.738617,-0.203049,-0.626341,-1.350611,2.393222,-0.112221,0.707508,1.714336,-2.836126,1.415312,-0.692773,166.666428,167.760971,10.000000,-5.312521,45.230148,-15.968533
461772263.704073,0.341858,1.625671,-0.250183,-1.010977,-1.407276,1.986440,0.787082,0.751957,-0.116600,-3.058109,-0.121961,0.104108,166.413879,167.508423,10.000000,-4.416683,45.710892,-13.381577
461772263.737231,-0.294968,1.493988,-0.580795,-1.860117,-1.438881,1.056792,-0.076173,0.593619,-0.544027,-2.407189,2.380039,0.356218,182.246414,183.340958,10.000000,-3.451937,47.771179,-8.605663
461772263.770399,0.073730,1.501297,0.103714,-2.249316,-1.430169,0.627163,-0.154020,0.432891,-0.595892,-1.075769,0.028719,0.797314,185.824127,186.918671,10.000000,-2.383825,48.492264,-6.449867
461772263.803790,0.194458,1.426941,-0.040436,-2.611056,-1.438017,0.247821,0.290271,0.496794,-0.075784,-0.818224,2.226154,1.807091,193.803711,194.898254,10.000000,0.648234,49.865784,-3.265926
461772263.837110,0.112686,0.820175,-0.259247,-3.016544,-1.421731,-0.257494,0.104689,0.045468,-0.294251,-1.338591,2.647266,1.631774,153.591522,154.686066,11.000000,4.748405,50.449524,-0.446808
461772263.870395,-0.258163,0.660767,-0.165817,3.106199,-1.382299,-0.524426,-0.058328,-0.256320,-0.404093,-1.240178,3.584148,1.131519,201.629059,202.723602,10.000000,9.330953,50.895905,3.101967
461772263.903828,-0.333862,0.634201,-0.101883,3.080580,-1.348262,-0.659889,-0.333266,-0.353378,-0.356767,-0.755266,3.161452,0.763668,203.892548,204.987091,10.000000,11.088166,51.067596,4.926102
461772263.936217,-0.269180,0.738846,0.034561,3.102013,-1.333060,-0.744685,-0.309612,-0.280330,-0.241865,-0.303530,3.282223,0.556072,211.153641,212.248184,10.000000,13.431123,50.724228,8.508041
461772263.970486,-0.303757,0.766464,0.065094,-3.138577,-1.324763,-0.805963,-0.273023,-0.240867,-0.218061,-0.154737,2.910109,0.407194,216.876724,217.971268,10.000000,15.016063,50.106140,11.691982
461772264.003806,-0.260864,0.784912,0.178268,-3.113138,-1.328453,-0.849998,-0.289910,-0.206343,-0.116804,0.305958,1.407452,0.245124,220.492523,221.587067,10.000000,15.911901,49.625397,12.819633
461772264.037204,-0.242905,0.879395,0.310715,-3.109240,-1.343761,-0.864672,-0.262586,-0.136798,0.026294,0.574947,0.199861,0.021307,225.016129,226.110672,10.000000,16.704372,49.453720,13.715115
461772264.070408,-0.073700,1.144699,0.359528,-2.975226,-1.380597,-0.768075,-0.054737,0.113950,0.133898,0.853106,1.363277,-0.646976,227.713043,228.807587,10.000000,17.427929,49.762756,13.350285
461772264.103797,-0.039673,1.007675,0.559418,-2.791208,-1.395262,-0.628165,-0.016960,0.141313,0.308267,0.456631,1.487232,-0.525577,228.848907,229.943451,10.000000,16.876644,50.106125,12.819626
461772264.137150,-0.065781,0.909546,0.462158,-2.683069,-1.402390,-0.566901,0.032349,-0.026731,0.403077,0.322686,1.369194,-0.004472,232.193817,233.288361,10.000000,16.497631,50.758545,12.720135
461772264.170482,-0.518982,2.064590,-0.069824,-2.601950,-1.420277,-0.501687,-0.373253,0.466751,0.012303,0.872395,-0.292021,-0.137441,238.212082,239.306625,10.000000,15.360612,50.792877,11.890984
461772264.203783,-0.042511,0.862823,0.137756,-2.449646,-1.432217,-0.294646,-0.455916,1.445942,-0.084759,0.610185,-2.201821,-0.842673,239.434692,240.529236,10.000000,15.222791,50.930237,11.360325
461772264.237147,-0.055634,0.415390,-0.239853,-2.294041,-1.423173,-0.114132,0.017386,-0.467410,-0.233119,0.210706,0.087558,-0.842917,240.251495,241.346039,10.000000,14.361411,50.895889,9.934185
461772264.270551,0.284622,0.423325,-0.551971,-2.140641,-1.398597,0.026070,0.366731,-0.810726,-0.423666,0.196978,1.143014,-0.848659,239.294830,240.389374,10.000000,12.673106,51.410965,9.171368
461772264.303792,0.354385,1.258469,-0.356400,-1.905199,-1.386148,0.181753,0.519943,0.020463,-0.513887,0.553655,2.983247,-0.667844,240.810822,241.905365,10.000000,11.846181,51.617004,9.237698
461772264.337156,0.256393,1.121262,-0.228195,-1.716683,-1.387567,0.286509,0.482730,0.246613,-0.354734,1.139049,2.218481,0.453257,244.807083,245.901627,10.000000,10.812522,51.823029,9.038700
461772264.370861,-0.116837,1.125793,-0.042862,-1.241486,-1.409453,0.762123,0.138615,0.143649,-0.034765,2.228573,-0.983783,1.057147,249.011169,250.105713,10.000000,11.053712,51.033264,7.347229
461772264.403863,-0.240585,1.025574,0.197739,-1.001879,-1.416851,1.050208,-0.067852,0.092866,0.022608,0.806003,-1.115516,0.701099,246.473251,247.567795,10.000000,11.570542,50.380844,5.589428
461772264.437050,-0.206131,1.147400,0.627869,-0.746051,-1.403346,1.314068,-0.156574,0.116496,0.636680,1.556342,1.088899,0.254198,245.380966,246.475510,10.000000,13.121028,49.110336,2.969307
461772264.470451,0.469177,0.976959,-0.235504,-0.624738,-1.388289,1.353329,0.311370,0.027763,0.229872,-0.196807,2.324783,-0.288808,198.464035,199.558578,11.000000,14.740422,49.144669,2.206486
461772264.503725,0.022308,0.910370,-0.378586,-0.616527,-1.401898,1.347054,0.581569,-0.039482,-0.174207,-0.263446,-0.670698,0.815377,197.129791,198.224335,11.000000,15.532889,49.453690,2.571312
461772264.537120,-0.128632,0.907532,-0.284317,-0.504247,-1.407767,1.520330,0.100727,-0.076370,-0.236479,0.760457,-2.539337,0.622217,202.026108,203.120651,11.000000,15.567348,49.281998,2.272816
461772264.570435,-0.593689,0.946976,0.008453,-0.419847,-1.383125,1.691553,-0.288406,-0.032078,0.128620,1.242997,-2.149507,0.493918,199.033554,200.128098,11.000000,15.498435,48.183182,-0.181477
461772264.603784,-0.193588,0.982086,-0.046753,-0.341630,-1.344709,1.763963,-0.470202,-0.080996,0.119751,1.054592,1.664548,-0.595972,191.915649,193.010193,11.000000,15.188340,47.118729,-2.138271
461772264.637171,-0.097504,1.122391,-0.066116,-0.361260,-1.320896,1.688657,-0.106177,0.013149,0.184592,0.310517,1.665369,-0.837133,191.441620,192.536163,11.000000,15.188340,47.050049,-2.536263
461772264.670464,-0.002090,0.996521,0.015259,-0.382899,-1.301903,1.608108,0.022076,0.189926,0.181958,0.400604,1.707344,-0.717299,193.366699,194.461243,11.000000,15.084977,47.427765,-1.707111
461772264.704014,0.048141,1.126389,0.117386,-0.359853,-1.277284,1.582295,0.100612,0.070965,0.318362,0.626431,1.180775,-0.314953,198.704025,199.798569,11.000000,15.326163,48.011505,-1.408615
461772264.737675,0.139282,1.195770,0.062485,-0.395895,-1.274435,1.531490,0.251904,0.239365,0.331938,-0.449939,0.120217,-0.349212,201.172729,202.267273,11.000000,15.153886,48.114517,-1.176453
461772264.770446,0.466461,1.645599,0.568771,-0.442552,-1.284068,1.460245,0.426230,0.582726,0.556153,-0.728452,1.051774,-0.564367,203.196320,204.290863,11.000000,15.257253,48.560928,-0.015640
461772264.803804,0.584412,1.664520,0.173904,-0.564519,-1.335001,1.298626,0.792010,0.687003,0.590878,-3.077075,0.215594,-0.118914,205.139557,206.234100,11.000000,14.774877,48.698273,2.836643
461772264.837011,-0.277557,1.121399,-0.421997,-0.977850,-1.428859,0.883451,0.581425,0.614228,0.208475,-3.880799,1.033902,0.290140,206.849701,207.944244,11.000000,14.395869,49.144669,5.390430
461772264.870471,-0.356201,0.919067,-0.440506,-1.804450,-1.444877,-0.017381,-0.252551,0.047712,-0.537744,-3.378968,1.531719,-0.721169,208.645187,209.739731,11.000000,13.879039,49.591049,11.924149
461772264.903823,0.044388,0.969131,-0.405457,-2.265338,-1.375160,-0.472105,-0.099801,-0.165342,-0.471630,-2.744652,-1.176141,-0.525862,209.867203,210.961746,11.000000,14.154683,49.934433,19.220684
461772264.936914,0.656723,1.479614,0.389221,-2.506318,-1.320570,-0.721678,0.423886,0.211975,-0.640888,-1.919802,1.643534,0.510112,213.437943,214.532486,11.000000,14.223594,49.659744,22.205631
461772264.970494,0.305344,1.327927,0.045227,-2.576008,-1.332027,-0.906294,0.783469,0.507985,0.189544,-0.570675,2.938521,2.120399,215.809540,216.904083,11.000000,14.740422,48.663940,26.882038
461772265.003949,-0.011292,0.926285,-0.324646,-2.861335,-1.347705,-1.205395,0.096216,-0.041914,-0.305692,-0.477658,0.619429,1.819691,220.171432,221.265976,11.000000,16.187542,46.260269,30.198650
461772265.037059,-0.162460,0.908432,-0.180115,-3.036231,-1.320517,-1.460075,-0.058776,-0.032243,-0.575006,-1.667114,3.118840,1.422126,220.042526,221.137070,11.000000,18.461586,43.650574,33.780598
461772265.070516,-0.161530,0.857803,-0.157318,-3.072460,-1.281650,-1.611218,-0.142764,-0.050056,-0.464568,-1.068129,3.521623,1.062740,219.706757,220.801300,11.000000,18.840591,42.448746,36.002728
461772265.103616,-0.236893,0.714798,-0.008575,-3.070022,-1.267162,-1.717362,-0.120404,-0.137361,-0.404503,-0.284058,2.813565,0.824457,223.495117,224.589661,11.000000,18.117031,40.560135,40.148487
461772265.137157,-0.307999,0.722519,0.045319,-3.070069,-1.264977,-1.788373,-0.266158,-0.269625,-0.283963,-0.022703,1.587274,0.540987,232.625290,233.719833,11.000000,16.394272,39.323975,42.536457
461772265.170496,-0.236374,0.754257,0.079941,-3.067124,-1.270309,-1.835818,-0.285977,-0.232673,-0.249847,0.264043,1.442902,0.410414,236.664963,237.759506,11.000000,15.532893,38.671539,42.967617
461772265.204010,-0.148499,0.801926,0.166580,-3.052008,-1.282331,-1.863957,-0.163163,-0.188113,-0.179916,0.394870,1.191998,0.194309,241.685974,242.780518,11.000000,14.395869,38.568527,43.199787
461772265.237092,0.014404,1.086533,0.468811,-2.996582,-1.303607,-1.859239,-0.049906,-0.030099,0.040217,0.396883,1.005145,-0.085641,245.508484,246.603027,11.000000,13.293300,38.705887,43.730442
461772265.270598,0.143982,1.095215,0.552780,-2.953440,-1.308560,-1.856816,0.133939,0.135353,0.274875,-0.007568,1.481915,0.138323,247.207458,248.302002,11.000000,12.259641,38.843231,43.863117
461772265.303803,0.345154,1.181396,0.611877,-2.953370,-1.309478,-1.905935,0.295091,0.132781,0.363717,-0.076973,1.390171,0.584018,250.657883,251.752426,11.000000,10.571336,38.740219,44.692265
461772265.337143,0.144714,1.094620,0.512482,-3.014705,-1.307202,-2.015434,0.360426,0.243357,0.208599,-0.287925,1.501318,0.985129,253.098663,254.193207,11.000000,9.296494,38.362503,45.388752
461772265.370413,0.022171,0.804901,0.434372,-3.062119,-1.292437,-2.122664,0.088374,-0.005102,0.222747,-0.708530,1.763030,0.693820,254.893738,255.988281,11.000000,8.848577,37.984802,45.687244
461772265.403776,-0.001602,0.465118,0.181564,-3.090648,-1.281938,-2.209068,0.029993,-0.418699,-0.065662,0.034447,1.514818,0.803234,257.548798,258.643341,11.000000,7.642643,36.576950,47.378719
461772265.437108,-0.132217,0.692719,0.215103,-3.139969,-1.301374,-2.293322,-0.013285,-0.479245,-0.043229,0.871728,0.529459,0.619367,261.504456,262.598999,11.000000,6.057704,35.890198,47.776714
461772265.470351,-0.481171,1.604263,0.062592,3.097644,-1.337140,-2.339829,-0.257395,-0.101107,-0.105229,1.273798,-0.416528,0.093833,264.289398,265.383942,11.000000,6.402256,36.164902,46.715389
461772265.503769,0.084946,1.521805,0.644989,-3.131677,-1.374669,-2.244600,-0.482763,2.075080,0.048927,0.065726,-1.660949,-0.681379,264.248199,265.342743,11.000000,6.402256,36.576965,45.654079
461772265.537349,-0.128113,0.113968,-0.570618,3.096042,-1.349134,-2.285639,-0.231691,-0.470757,-0.346256,-0.321288,0.856389,0.617972,263.534058,264.628601,11.000000,6.919081,36.473953,45.156597
461772265.570353,0.118317,1.240463,-0.410995,-3.094701,-1.358994,-2.221446,0.032605,-0.402046,-0.605713,0.379282,-0.341653,-1.092298,260.769653,261.864197,11.000000,6.092158,36.542633,44.559605
461772265.603262,0.146286,1.317474,-0.345779,-2.892995,-1.380052,-2.008176,0.154054,0.344034,-0.575409,1.115681,-0.157572,-1.156825,260.331818,261.426361,11.000000,5.540874,36.542633,44.426945
461772265.637124,0.132568,1.367371,0.274933,-2.715247,-1.412500,-1.809143,0.324009,0.367575,-0.064072,1.423260,-0.925135,-0.328186,262.841217,263.935760,11.000000,4.679493,37.263733,42.337482
461772265.670446,0.067520,1.074600,-0.091721,-2.600523,-1.437056,-1.671159,0.094847,0.208652,-0.007331,0.660821,0.229870,-0.024589,264.834351,265.928894,11.000000,3.955934,38.396866,41.176678
461772265.703843,0.050308,0.904907,-0.117508,-2.498470,-1.454269,-1.619964,0.125555,-0.005517,-0.215154,0.555366,2.250915,0.072810,264.579956,265.674500,11.000000,3.542472,38.808929,40.513355
461772265.737350,-0.225922,0.898651,-0.110535,-2.304949,-1.474686,-1.500733,-0.014604,-0.077645,-0.198934,0.783515,1.993107,0.245487,263.192596,264.287140,11.000000,2.267631,40.079437,39.418873
461772265.770441,-0.029480,0.839890,0.034943,-2.053484,-1.500414,-1.291645,-0.138287,-0.081295,-0.065769,1.004683,0.804347,0.283423,268.127991,269.222534,11.000000,1.096152,41.109589,37.893238
461772265.803754,0.080597,0.773132,-0.010513,-1.679096,-1.512681,-0.934020,0.102160,-0.197408,0.014031,0.562061,0.602008,0.169814,268.537750,269.632294,11.000000,0.648234,41.762024,37.064091
461772265.837050,-0.056641,0.994675,-0.150146,-1.558940,-1.516557,-0.823911,0.137750,-0.215326,-0.044523,0.330286,0.618160,0.238644,271.623840,272.718384,11.000000,-0.213149,42.139740,36.035938
461772265.870695,-0.145172,0.962204,0.007446,-0.897180,-1.516197,-0.166359,-0.069301,0.033518,-0.120376,1.160462,-0.377624,0.162189,272.543823,273.638367,11.000000,-0.316515,42.654800,35.140461
461772265.903745,-0.139618,0.987473,0.084656,-0.452883,-1.483120,0.287935,-0.096985,-0.056187,0.131227,1.525655,0.097554,0.058983,272.892853,273.987396,11.000000,-0.144238,42.826477,34.112316
461772265.936249,0.034164,0.923431,0.457352,-0.291413,-1.434339,0.417757,-0.132212,0.244983,0.371357,1.424867,1.630142,-0.291346,271.936584,273.031128,11.000000,-0.661065,44.165649,32.354511
461772265.970468,0.150604,0.640701,-0.016190,-0.286574,-1.420624,0.367287,0.082008,-0.130988,0.374464,-0.237744,1.094861,-0.358501,271.704865,272.799408,11.000000,-1.660265,44.886749,30.928371
461772266.003886,0.057755,0.626648,-0.019775,-0.387930,-1.430637,0.265435,0.203449,-0.349492,0.113131,-0.595408,-0.387632,-0.203718,273.498932,274.593475,11.000000,-2.521648,44.989761,31.094204
461772266.037148,-0.013016,0.739670,-0.037186,-0.484390,-1.438631,0.170374,0.028895,-0.249351,0.080350,-0.213338,0.242968,-0.373006,276.087219,277.181763,11.000000,-3.314116,44.886749,31.326374
461772266.070503,0.041901,0.906982,0.018509,-0.572042,-1.440063,0.071781,0.059051,-0.209866,0.081440,-0.267983,0.255919,-0.294250,276.849701,277.944244,11.000000,-3.899859,44.715057,31.492199
461772266.103863,0.103302,0.814362,0.009125,-0.667063,-1.438402,-0.035134,0.123572,-0.084266,0.122220,-0.227815,0.493109,-0.424410,277.967407,279.061951,11.000000,-4.830151,44.474686,31.658024
461772266.137141,0.193588,0.806351,-0.069870,-0.788747,-1.442115,-0.184109,0.216471,-0.188875,0.070020,-0.656361,1.002587,-0.298558,278.662445,279.756989,11.000000,-5.346978,44.509033,31.691189
461772266.170528,0.373795,0.969727,0.012863,-0.882126,-1.450899,-0.315248,0.305165,-0.132027,-0.014867,-0.315602,1.146921,-0.104627,280.797852,281.892395,11.000000,-6.931917,44.234329,32.221851
461772266.203449,0.300507,1.150299,0.031189,-0.867941,-1.441603,-0.326818,0.472095,-0.021940,0.096142,0.246278,0.581215,-0.303321,283.876892,284.971436,11.000000,-7.931118,44.268677,32.586681
461772266.237126,0.423691,1.632553,0.299500,-1.101175,-1.449137,-0.589401,0.146520,0.553870,0.775746,-2.208328,0.023528,-0.410465,285.200165,286.294708,11.000000,-8.275670,44.131317,32.719341
461772266.269715,0.150909,2.311157,0.085739,-1.922540,-1.468651,-1.399688,0.959021,1.035669,0.098978,-3.039014,0.083511,1.117386,287.235077,288.329620,11.000000,-8.241216,43.066849,34.012821
461772266.303822,-0.889099,1.496704,-0.420288,-2.756368,-1.429084,-2.304709,-0.323132,1.406463,-0.125929,-3.257459,2.333832,1.530064,288.400055,289.494598,11.000000,-7.448748,40.972229,37.495258
461772266.337281,-0.733643,1.061676,0.063766,-2.904825,-1.352337,-2.447580,-0.769050,0.206049,-0.350618,-1.782093,-1.947621,-0.768215,287.867523,288.962067,11.000000,-6.415093,39.667389,39.617886
461772266.370399,0.121017,1.433151,-0.032349,-2.950690,-1.297923,-2.449676,-0.408092,0.215726,-0.181047,-1.755010,-0.534301,0.516021,289.533112,290.627655,11.000000,-4.933517,37.778809,43.829975
461772266.403783,-0.147202,1.144348,-0.047943,-3.103910,-1.252089,-2.628407,0.313700,0.620305,-0.369102,-1.478361,0.517980,1.964366,288.655090,289.749634,11.000000,-2.418285,36.370956,46.914417
461772266.437127,-0.184235,0.895477,-0.019455,3.020583,-1.200956,-2.795800,-0.190836,0.211963,-0.406766,-1.970983,1.186275,1.680656,287.386230,288.480774,11.000000,-1.487993,35.237808,48.539555
461772266.470550,-0.368927,0.225250,-0.024292,3.017032,-1.124370,-2.892153,-0.309377,-0.331912,-0.466303,-1.974175,3.120990,1.336825,284.779633,285.874176,11.000000,-0.385427,33.177505,51.259182
461772266.503747,-0.263428,0.304703,-0.133224,3.030648,-1.080875,-2.951387,-0.465459,-0.606262,-0.494336,-0.750981,1.309319,0.729811,285.905243,286.999786,11.000000,-1.246804,30.533463,53.348644
461772266.537386,-0.218170,0.331299,-0.149002,3.037560,-1.068525,-2.978003,-0.313420,-0.571788,-0.612040,-0.087752,0.715753,0.233262,289.904449,290.998993,11.000000,-2.625011,29.159943,54.608944
461772266.570483,-0.374710,0.196167,-0.136002,3.040452,-1.075866,-2.982119,-0.260588,-0.576916,-0.627115,0.504432,-0.199373,-0.102022,292.176117,293.270660,11.000000,-2.831743,28.885254,54.741611
461772266.603717,-0.197037,0.294647,0.072601,3.055079,-1.128885,-2.943833,-0.345120,-0.689047,-0.458158,1.470027,-0.696889,-0.737520,294.827026,295.921570,11.000000,-3.004021,29.606339,54.177792
461772266.637042,-0.144440,0.506531,0.155045,3.063010,-1.157397,-2.918112,-0.228573,-0.621113,-0.327884,1.828491,-1.064767,-0.836037,294.649231,295.743774,11.000000,-2.625014,31.563614,52.287319
461772266.670655,0.003036,1.147125,0.288559,-3.116420,-1.259821,-2.758707,-0.009968,0.000006,-0.052717,1.973197,-0.529499,-1.578383,294.511597,295.606140,11.000000,-2.590557,32.902786,51.192837
461772266.703775,0.246979,1.610168,0.404297,-2.896588,-1.304737,-2.551056,0.149577,0.569625,0.023256,1.363651,1.603008,-1.484681,292.844177,293.938721,11.000000,-4.347771,36.576965,48.771709
461772266.737096,0.333328,1.192856,0.401337,-2.701881,-1.341298,-2.413825,0.436910,0.440572,0.239342,1.462541,1.446415,0.032913,294.444092,295.538635,11.000000,-6.656273,39.289673,46.416920
461772266.770901,-0.092957,1.082504,0.314377,-2.596639,-1.394934,-2.308379,0.109737,0.104657,0.122678,1.922257,-0.655335,0.281855,294.664886,295.759430,11.000000,-8.000030,40.766190,44.990772
461772266.803781,-0.590820,2.056976,0.933792,-2.496323,-1.452934,-2.189130,-0.305486,0.561289,0.315294,1.616148,-0.016679,0.567179,301.689758,302.784302,11.000000,-8.792504,42.517426,42.304317
461772266.837301,-0.714905,1.756668,0.188797,-2.499360,-1.465205,-2.205604,-0.585445,0.887528,0.459671,-0.544616,0.431241,-0.102854,300.895233,301.989777,11.000000,-8.344585,44.612045,40.546520
461772266.871005,0.020020,0.775879,-0.141830,-2.449656,-1.463438,-2.143695,-0.362969,-0.089931,-0.199681,0.459786,-1.133464,0.059497,299.098633,300.193176,11.000000,-7.655480,44.749405,40.214855
461772266.903778,0.226547,1.877655,0.068634,-2.424364,-1.457515,-2.084259,0.292684,0.431535,-0.293533,-0.431292,-0.692338,-0.577584,299.227295,300.321838,11.000000,-6.690734,45.024109,40.480183
461772266.937067,-0.030151,0.876617,-0.219696,-2.360394,-1.443971,-2.033440,0.367444,0.527502,0.065887,-0.023033,0.503281,0.037058,298.590820,299.685364,11.000000,-6.484002,45.024109,40.878178
461772266.970448,-0.000687,0.805603,-0.138092,-2.446162,-1.444143,-2.096698,0.050781,-0.115373,-0.316678,-0.147082,-1.171798,0.177245,298.450134,299.544678,11.000000,-6.070538,45.024109,41.077175
461772267.003816,0.118469,1.046906,-0.049911,-2.399089,-1.455436,-2.043558,0.088828,-0.189612,-0.222777,0.718993,0.490043,0.025781,299.355133,300.449677,11.000000,-5.725985,45.642197,40.944515
461772267.037388,0.154465,1.044296,0.099258,-2.156647,-1.477678,-1.815564,0.230982,0.106337,-0.047368,1.200623,0.404483,0.038855,297.528778,298.623322,11.000000,-5.174703,45.916901,39.684208
461772267.070433,-0.284805,0.993301,0.321960,-1.804794,-1.496827,-1.469697,-0.126828,-0.002804,0.596451,0.627645,-0.245129,0.164173,297.903687,298.998230,11.000000,-5.725988,46.466324,39.020893
461772267.103803,0.018311,0.639984,0.057037,-1.728352,-1.492120,-1.343826,0.042954,-0.340184,0.003003,0.063505,-1.572234,-0.162423,298.148590,299.243134,11.000000,-5.140245,46.912720,38.258068
461772267.137132,-0.010971,0.618027,0.208389,-1.787788,-1.488488,-1.362298,0.137950,-0.362688,0.195846,-0.083954,-0.737575,-0.035223,297.304688,298.399231,11.000000,-4.037676,47.462128,38.390728
461772267.170390,-0.017197,0.525848,0.044128,-1.892094,-1.485935,-1.454527,0.044167,-0.433962,0.071881,-0.340297,-0.557672,-0.114617,296.276947,297.371490,11.000000,-3.417483,47.599487,38.523396
461772267.203235,-0.024582,0.912186,0.455475,-1.974168,-1.475342,-1.521255,0.027342,-0.142390,0.295688,-0.344551,-0.170028,-0.372278,293.383026,294.477570,11.000000,-2.487194,47.771179,38.954556
461772267.237149,0.051086,0.735992,-0.060730,-2.112361,-1.454672,-1.653668,0.150294,-0.167566,0.028883,-0.663887,-0.525149,-0.269917,292.396576,293.491119,11.000000,-2.177099,47.462128,40.115360
461772267.270498,0.065994,0.818939,0.079041,-2.241751,-1.438338,-1.760519,0.172702,-0.222899,-0.105383,-0.796812,-0.544627,-0.126775,292.494873,293.589417,11.000000,-1.177895,46.672348,41.209843
461772267.303925,0.093216,1.485703,0.361008,-2.354445,-1.412142,-1.889768,0.194491,0.132661,0.145515,-1.028004,1.499917,-0.324599,292.514282,293.608826,11.000000,-0.867797,46.157272,42.237995
461772267.337092,-0.147049,1.954910,0.979660,-2.485592,-1.367775,-2.066006,0.212569,0.568939,0.076244,-2.147485,0.373541,0.136801,291.536377,292.630920,11.000000,-0.867794,44.989777,44.559620
461772267.370688,-0.272598,2.208084,0.747177,-2.730599,-1.303457,-2.306393,-0.124013,1.228211,0.827001,-2.838929,-0.338730,0.599785,294.954498,296.049042,11.000000,-0.867797,42.036697,48.473225
461772267.403846,-0.326111,1.252853,-0.016144,-2.878973,-1.220553,-2.465509,-0.339372,0.826778,-0.144732,-2.719745,-0.516737,0.687872,296.826660,297.921204,11.000000,-0.109783,40.388489,50.264187
461772267.437403,-0.175583,0.933624,0.046616,-2.949374,-1.186865,-2.526855,-0.254554,0.325654,-0.383814,-2.148213,-0.869029,0.922676,296.600891,297.695435,11.000000,2.439902,36.130569,54.376789
461772267.470448,-0.324463,1.014526,0.185562,-3.082815,-1.136340,-2.650480,-0.247429,0.070135,-0.221811,-0.811030,-0.028684,0.850101,294.838806,295.933350,11.000000,4.438307,32.834106,57.030079
461772267.503701,-0.070267,0.549377,0.005554,-3.129570,-1.115445,-2.710507,-0.283425,-0.129338,-0.342426,-0.389329,0.237435,0.715249,292.870667,293.965210,11.000000,4.989592,31.391922,58.091396
461772267.537114,0.010437,0.350296,-0.000366,3.125564,-1.119179,-2.746227,-0.024283,-0.429162,-0.431101,0.416493,0.080456,0.280101,291.412872,292.507416,11.000000,5.678694,30.155762,59.020054
461772267.570674,-0.005859,0.349686,-0.045593,3.138194,-1.141231,-2.739167,0.009022,-0.558851,-0.416840,0.839036,0.373379,-0.338143,291.004242,292.098785,11.000000,6.126609,30.945526,59.252216
461772267.603740,-0.185349,0.389206,-0.045502,-3.096827,-1.173918,-2.700791,-0.115377,-0.567505,-0.427322,1.141676,0.270293,-0.536108,290.674835,291.769379,11.000000,6.023243,31.597946,59.219044
461772267.637106,-0.137772,0.463211,-0.011307,-3.037701,-1.216217,-2.637536,-0.164571,-0.556216,-0.389193,1.569378,0.048944,-0.712418,291.886047,292.980591,11.000000,5.471961,33.658218,57.759739
461772267.670405,-0.092148,0.679092,-0.025116,-2.934124,-1.273137,-2.540818,-0.077360,-0.492815,-0.298300,2.087407,0.547988,-0.588988,293.148315,294.242859,11.000000,4.334941,36.576965,54.940617
461772267.703971,-0.058456,1.282074,-0.046722,-2.795927,-1.338971,-2.420372,-0.001133,-0.115949,-0.254769,2.297547,0.788288,-0.231052,295.372864,296.467407,11.000000,2.543269,40.491501,51.292339
461772267.737105,-0.116760,1.118607,0.836838,-2.354921,-1.449437,-2.041682,-0.159664,0.453644,1.962510,1.456206,0.833540,-0.058589,296.452057,297.546600,11.000000,2.026442,42.311417,49.401875
461772267.770412,-0.546585,1.934509,0.397476,-2.195671,-1.463871,-1.887947,-0.236595,0.522755,0.537345,0.481681,0.675304,0.046563,298.831940,299.926483,11.000000,0.407044,45.230148,47.445072
461772267.803705,-0.681091,1.659027,-0.248047,-2.235684,-1.463418,-1.958924,-0.592033,0.891532,0.252573,-0.791776,0.333012,0.134184,299.814972,300.909515,11.000000,0.165858,46.019913,46.682255
461772267.837122,-0.286163,1.978638,-0.151245,-2.297521,-1.463813,-1.979757,-0.392228,0.498241,-0.388284,0.449806,-2.022144,-0.200088,299.963196,301.057739,11.000000,0.510410,46.569336,46.549595
461772267.870385,0.613159,0.848312,-0.007034,-2.059756,-1.458089,-1.710801,0.301240,0.890378,0.015654,0.874293,0.544532,-0.875135,301.704773,302.799316,11.000000,1.440705,46.809708,46.184772
461772267.903824,0.121399,0.878769,-0.296234,-2.149107,-1.454296,-1.787730,0.361557,-0.162838,-0.345793,-0.352030,-0.803205,0.311131,297.922974,299.017517,11.000000,2.887824,47.839859,45.985767
461772267.937289,-0.163635,1.040680,-0.164886,-2.221216,-1.467512,-1.859963,-0.027508,-0.124325,-0.288473,0.158542,0.378861,0.552141,297.668152,298.762695,11.000000,2.646638,47.805511,46.151600
461772267.970474,-0.103851,0.790649,-0.083023,-2.241207,-1.488276,-1.877733,-0.148410,0.158692,-0.251286,0.636397,-0.495642,0.369302,297.094635,298.189178,11.000000,3.714750,48.045883,45.985775
461772268.003814,-0.029388,0.586243,0.020966,-1.846741,-1.515889,-1.446484,-0.051048,-0.207844,-0.097975,1.405269,-1.322682,0.354139,295.973328,297.067871,11.000000,5.024046,48.457947,44.725468
461772268.037131,-0.057220,0.537552,0.489380,-1.206400,-1.520447,-0.774394,0.056133,-0.596984,1.215446,0.380459,-0.482244,-0.085418,294.344879,295.439423,11.000000,6.229979,48.629623,44.028980
461772268.070409,0.055313,0.689987,0.252060,-1.710590,-1.512546,-1.263386,-0.030928,-0.429517,0.016180,-0.587848,-0.622910,-0.352503,292.080750,293.175293,11.000000,7.746006,48.698303,43.365665
461772268.103798,0.058792,0.695801,0.160065,-2.009381,-1.503351,-1.478531,0.119808,-0.301926,0.131445,-0.523801,-1.848272,0.043286,290.200287,291.294830,11.000000,9.847775,48.526596,44.194813
461772268.137108,0.040909,0.896957,0.183685,-2.271233,-1.493430,-1.702237,0.119105,-0.089782,0.179340,-0.672963,-0.596315,-0.048410,289.944946,291.039490,11.000000,10.640248,48.217560,44.493313
461772268.170409,0.182480,0.816376,-0.024841,-2.367127,-1.484036,-1.796628,0.115210,-0.128777,0.028104,-0.784642,0.140202,-0.109064,285.629303,286.723846,11.000000,12.535285,47.427780,45.587788
461772268.203739,0.347382,1.077148,0.235901,-2.600006,-1.448141,-2.078409,0.325918,-0.128428,-0.064526,-1.227118,1.470327,0.161008,283.558716,284.653259,11.000000,12.328553,46.122925,47.246082
461772268.237070,0.243454,1.761795,0.597504,-2.768450,-1.406478,-2.284945,0.516892,0.747341,0.167653,-1.746750,0.422900,0.295577,284.145355,285.239899,11.000000,12.121821,45.298813,48.904385
461772268.270395,-0.221619,2.064499,0.596176,-3.001445,-1.338161,-2.496993,-0.034385,1.058584,0.677419,-2.844664,-1.224506,0.874576,287.764587,288.859131,11.000000,12.707561,42.311417,51.988834
461772268.303979,-0.384338,1.830093,0.067413,-3.128613,-1.240832,-2.636651,-0.267508,1.080084,0.033578,-2.956908,0.801425,1.186599,289.014587,290.109131,11.000000,14.361415,36.886002,56.234097
461772268.337086,-0.449615,0.890015,-0.038376,3.051671,-1.170822,-2.766151,-0.390009,0.323680,-0.737019,-1.350635,0.301755,1.584504,287.796814,288.891357,11.000000,15.153886,33.898590,57.726574
461772268.370964,-0.028824,0.870453,0.012711,2.974646,-1.140344,-2.843111,-0.397222,-0.091150,-0.190777,-0.740445,-0.040952,0.687320,286.062927,287.157471,11.000000,16.084179,28.713562,60.545681
461772268.403643,-0.056412,0.816071,-0.138077,2.952764,-1.119546,-2.875687,-0.035425,0.004333,-0.476633,-0.305057,0.238604,0.552439,283.884064,284.978607,11.000000,16.738827,25.382767,61.772831
461772268.437151,-0.209763,0.331879,-0.023895,2.922351,-1.127162,-2.901641,-0.401290,-0.446548,-0.490545,0.698933,-0.426238,0.095806,283.001373,284.095917,11.000000,17.255653,24.112259,61.540676
461772268.470454,-0.074402,0.336746,0.059158,2.913725,-1.164969,-2.906411,-0.224175,-0.622954,-0.388358,1.426922,0.081978,-0.397807,282.577087,283.671631,11.000000,17.462383,24.730347,61.341679
461772268.503922,-0.047165,0.501617,0.072906,2.951214,-1.221339,-2.875887,-0.168672,-0.564971,-0.278921,1.789711,0.385208,-0.976349,281.436707,282.531250,11.000000,16.532089,27.786423,59.915531
461772268.537116,0.138153,0.722137,0.026764,3.089391,-1.291458,-2.758928,-0.061551,-0.459621,-0.202438,2.133580,1.281172,-1.574363,282.181671,283.276215,11.000000,14.189137,32.456375,58.655216
461772268.570432,0.230606,0.891800,-0.200897,-2.957344,-1.360172,-2.586128,0.325230,-0.053599,-0.239727,2.288935,2.887422,-0.586316,283.720001,284.814545,11.000000,11.915092,34.860046,57.527569
461772268.603361,-0.566391,1.162643,0.956329,-2.830476,-1.452003,-2.567417,0.141840,-0.022356,-0.254091,2.721858,3.220920,0.833768,290.286407,291.380951,11.000000,7.883833,39.220978,54.973782
461772268.637116,-0.382278,1.117310,0.564713,-2.864481,-1.489169,-2.600409,-0.544084,0.165973,0.877903,-0.116900,-2.442582,0.092567,298.994537,300.089081,11.000000,6.126616,42.071060,52.884319
461772268.671388,-0.414169,1.742950,0.548721,-2.934927,-1.496549,-2.644698,-0.419380,0.292580,0.464356,0.541768,0.831860,0.219917,301.667114,302.761658,11.000000,6.367802,42.448776,52.187832
461772268.703960,-0.177277,1.295792,-0.305847,-2.890683,-1.499623,-2.620446,-0.396513,0.745482,0.479835,-0.302801,-0.306031,-0.298592,297.505951,298.600494,11.000000,7.367002,42.620483,52.154667
461772268.737108,-0.054565,1.202805,-0.306885,-2.825772,-1.475372,-2.531335,-0.124520,0.229128,-0.385138,-0.069340,-0.174873,-0.130942,298.738251,299.832794,11.000000,7.814921,41.762024,52.851162
461772268.770368,0.553223,1.446945,0.423218,-2.705017,-1.485339,-2.388297,0.306125,0.824954,-0.358246,1.044545,-1.318770,-0.126890,298.849304,299.943848,11.000000,8.193928,41.796356,52.817997
461772268.803792,-0.183395,1.079803,-0.174026,-2.854854,-1.502503,-2.461596,0.069059,0.001705,-0.233301,0.207262,-2.597387,0.332083,298.426300,299.520844,11.000000,9.847775,41.727692,52.353664
461772268.837132,-0.172379,0.998352,-0.113373,-2.976092,-1.518857,-2.541830,-0.173088,0.071219,-0.186872,0.524343,-0.317077,0.164161,296.780548,297.875092,11.000000,12.156276,42.860855,50.728535
461772268.870446,0.049149,0.993652,-0.084457,-2.912515,-1.534870,-2.487982,-0.069770,-0.049007,-0.097129,0.582461,0.633746,-0.064475,289.842834,290.937378,11.000000,13.086570,43.444595,49.899380
461772268.903813,-0.106964,0.802032,0.506882,-1.705835,-1.561361,-1.308888,0.050594,-0.009996,-0.084110,1.306086,0.697489,0.072184,288.843048,289.937592,11.000000,12.914296,43.890976,49.269230
461772268.937156,0.072784,0.743652,0.256805,-0.348721,-1.540695,0.052566,-0.044403,-0.249379,0.522106,0.314020,-0.540475,-0.241490,290.253601,291.348145,11.000000,12.397466,44.680740,48.042080
461772268.970483,0.213928,0.636688,0.101700,-0.628971,-1.534227,-0.202735,0.195429,-0.277301,0.047753,0.045540,-0.939409,-0.254207,290.472321,291.566864,11.000000,12.569739,45.745239,46.881268
461772269.003815,-0.061432,0.873520,0.361404,-0.689401,-1.530594,-0.236995,0.277899,-0.368699,0.283622,0.101875,-0.692891,-0.012227,290.133606,291.228149,11.000000,13.396665,45.813919,46.549603
461772269.037306,0.042969,0.662628,0.064621,-0.848928,-1.536606,-0.368500,-0.035775,-0.125896,0.383992,-0.490815,-1.143267,-0.050089,289.382324,290.476868,11.000000,14.361415,45.539200,46.881268
461772269.070417,0.020432,0.735245,0.173874,-1.614805,-1.540076,-1.099346,0.014282,-0.271882,0.261680,-0.675894,-0.100182,-0.215621,287.648773,288.743317,11.000000,15.842992,45.024124,47.047100
461772269.104172,0.107559,0.911499,0.302322,-1.945923,-1.533424,-1.430932,0.073203,-0.244678,0.084302,-0.782427,0.064517,-0.258337,286.430817,287.525360,11.000000,15.946357,44.371719,47.478260
461772269.137127,0.175110,0.954407,0.271698,-2.527474,-1.490794,-2.021833,0.245819,-0.124365,0.148156,-1.542007,0.170086,-0.209072,285.206543,286.301086,11.000000,15.946357,42.517471,49.003902
461772269.170407,0.060211,1.566437,0.565613,-2.733142,-1.436842,-2.240054,0.125968,0.241426,0.404395,-2.091927,0.358723,-0.056551,286.261902,287.356445,11.000000,15.532893,39.358353,51.922512
461772269.203728,-0.036652,1.819565,0.557693,-2.839983,-1.402037,-2.343939,0.149457,0.737702,0.305992,-2.460401,-0.549738,0.255913,286.920227,288.014771,11.000000,15.911901,37.607117,53.149654
461772269.237284,-0.027115,1.804489,0.085281,-2.999294,-1.310919,-2.488570,-0.000209,0.853143,0.303328,-3.294154,-0.085062,0.381554,287.925476,289.020020,11.000000,17.083374,32.868469,56.532597
461772269.270478,-0.287247,1.282623,0.072372,-3.111241,-1.191978,-2.648549,-0.129875,0.590093,-0.655633,-1.396836,0.789244,1.147422,287.465454,288.559998,11.000000,17.772480,27.305710,59.318546
461772269.303711,-0.227280,0.957993,0.087799,3.083142,-1.161073,-2.730172,-0.306642,0.135809,-0.253343,-0.590661,-0.881265,0.873762,287.350128,288.444672,11.000000,17.944756,25.073746,60.413029
461772269.337094,-0.040970,0.694229,-0.057053,2.995308,-1.156845,-2.793560,-0.168692,0.030140,-0.338699,0.269150,-0.776683,0.736548,289.078827,290.173370,11.000000,18.323765,21.674271,60.844181
461772269.370436,-0.229218,0.554459,-0.002228,2.924195,-1.172480,-2.853917,-0.236186,-0.284035,-0.405120,0.821374,-0.494616,0.484192,284.904144,285.998688,11.000000,19.839794,21.124863,59.650211
461772269.403841,-0.225449,0.272629,0.085587,2.885161,-1.200408,-2.880459,-0.347088,-0.536557,-0.305586,1.036078,-0.379915,-0.131425,282.332581,283.427124,11.000000,20.253258,21.399567,58.986897
461772269.437109,-0.157761,0.330597,0.052780,2.872169,-1.240974,-2.884158,-0.312282,-0.705820,-0.226223,1.338998,-0.222189,-0.436909,279.136322,280.230865,11.000000,21.045727,23.150818,57.162769
461772269.470479,-0.046417,0.430573,0.045715,2.923472,-1.295350,-2.836814,-0.216615,-0.631707,-0.212752,1.627683,0.717860,-1.098006,278.374725,279.469269,11.000000,20.046524,25.520142,56.200947
461772269.503803,0.258682,0.956635,-0.033142,3.108072,-1.350932,-2.694423,0.075317,-0.373007,-0.204608,1.490943,1.829223,-1.305329,278.433990,279.528534,11.000000,17.324566,28.713562,55.040127
461772269.537097,-0.018204,1.305786,0.705200,-2.931951,-1.397303,-2.531224,0.355428,0.081922,-0.262977,1.722821,3.258457,-0.307613,280.190826,281.285370,11.000000,15.153886,30.396118,54.741627
461772269.570449,-0.279434,1.237183,1.325989,-2.624708,-1.487129,-2.331640,0.023094,0.309284,0.632548,3.101463,1.750987,0.307219,287.927795,289.022339,11.000000,11.157081,33.761246,53.083332
461772269.603977,-0.728577,2.110794,0.345139,-2.497920,-1.518200,-2.143452,-0.262471,0.349375,1.144624,0.224398,0.061482,0.243504,297.238892,298.333435,11.000000,9.330953,35.581161,52.055180
461772269.637109,-0.336304,1.241226,0.095123,-2.766276,-1.512008,-2.470525,-0.645775,1.010913,0.060875,-0.914645,0.682356,0.178591,296.144348,297.238892,11.000000,9.985600,35.752853,51.690350
461772269.670446,0.161041,1.211868,0.111694,-2.866783,-1.502436,-2.498403,-0.317768,0.243562,0.029379,-0.020781,-2.051551,-0.358309,295.989014,297.083557,11.000000,10.915891,35.306458,51.192852
461772269.703950,0.306824,1.335297,-0.158249,-2.594197,-1.470012,-2.259914,0.632566,0.359643,-0.244558,-0.962768,1.992939,-1.002404,292.373688,293.468231,11.000000,10.467973,34.173294,51.624012
461772269.737071,-0.293060,1.100555,-0.069534,-2.577583,-1.489430,-2.260668,-0.101022,0.221250,-0.151681,0.577957,-1.437205,0.496629,294.645416,295.739960,11.000000,9.847779,34.173294,51.624012
461772269.770595,-0.093643,1.070236,-0.014618,-2.616055,-1.515828,-2.248849,-0.204341,0.091568,-0.101497,0.819104,-1.636757,0.112491,298.230560,299.325104,11.000000,10.433515,33.864258,51.657185
461772269.803771,-0.017563,0.866440,-0.091797,-2.228224,-1.536930,-1.824134,0.052758,-0.040290,-0.078873,0.913652,-0.659786,-0.017304,296.284607,297.379150,11.000000,12.363008,35.169098,49.600880
461772269.837060,0.041641,0.610870,0.418396,-1.121901,-1.541996,-0.689716,-0.019909,-0.275449,-0.024780,1.084691,-1.207671,0.026064,291.676270,292.770813,11.000000,14.120225,36.096237,46.914433
461772269.870379,0.004593,0.583603,0.129852,-0.701033,-1.525938,-0.238896,0.153924,-0.346452,0.799420,0.034434,-0.291954,-0.133831,290.583588,291.678131,11.000000,14.292500,36.611313,46.350605
461772269.903755,0.091782,0.479416,0.013947,-1.115993,-1.526417,-0.652263,0.044448,-0.415412,0.149341,-0.461082,-0.395116,-0.333014,287.738281,288.832825,11.000000,14.671510,36.989029,45.919437
461772269.937138,0.109558,0.589523,0.175232,-1.368972,-1.523982,-0.878781,0.134745,-0.583453,0.007901,-0.202336,-0.783780,-0.051437,287.071808,288.166351,11.000000,14.774877,36.817337,46.284260
461772269.970400,-0.012619,1.003998,0.009018,-1.457806,-1.523731,-0.952030,0.145564,-0.131171,0.429377,-0.118686,-0.237817,-0.011096,286.406464,287.501007,11.000000,15.119428,36.473953,46.284260
461772270.003733,0.067673,0.886536,0.235397,-1.817842,-1.518217,-1.284946,0.038340,0.005380,-0.003834,-0.493937,-1.638745,-0.215950,285.389130,286.483673,11.000000,16.807735,35.272110,46.052090
461772270.037249,0.063629,0.895645,0.114578,-2.165636,-1.502285,-1.586840,0.069487,-0.173771,0.331740,-1.056341,-0.703913,-0.291785,284.576202,285.670746,11.000000,17.496838,34.241959,46.317425
461772270.070463,0.309189,1.609589,0.421875,-2.474833,-1.441697,-1.943480,0.159133,0.433401,0.288647,-1.806418,1.542440,-0.371142,282.599670,283.694214,11.000000,17.634659,33.211823,46.914417
461772270.103714,0.166931,1.805939,0.719254,-2.721731,-1.372332,-2.212292,0.247302,0.825568,0.539214,-2.885502,-0.050635,0.284321,281.424438,282.518982,11.000000,16.566547,30.636475,48.340572
461772270.137242,-0.048386,1.821838,0.174011,-2.894216,-1.282909,-2.390683,0.019626,0.940187,0.117203,-2.950417,0.163932,0.418331,286.453949,287.548492,11.000000,15.946355,26.447235,50.794865
461772270.170419,0.066116,1.116959,-0.087021,-3.003931,-1.213179,-2.513306,0.029465,0.485370,-0.615515,-1.695039,-0.042904,0.887498,287.205444,288.299988,11.000000,15.911897,24.283951,51.889339
461772270.203804,-0.070053,1.178757,0.143311,-3.111888,-1.188324,-2.615577,0.020057,0.240941,-0.326404,-0.549550,-0.498358,1.135037,287.581787,288.676331,11.000000,15.808530,20.335068,53.249149
461772270.237181,-0.131729,0.965912,0.013336,3.116158,-1.181661,-2.669004,-0.171392,0.259791,-0.224221,-0.346336,-0.278851,1.272266,287.551117,288.645660,11.000000,16.153084,17.931412,53.514484
461772270.270464,-0.234528,0.606537,0.110779,2.999113,-1.182326,-2.812089,-0.205732,-0.249800,-0.360348,0.565886,0.400450,0.797878,285.756653,286.851196,11.000000,16.463181,17.485001,53.016987
461772270.303828,-0.260330,0.567596,0.066086,2.967439,-1.206831,-2.856161,-0.325813,-0.339491,-0.266995,0.984321,0.234069,0.118297,281.884216,282.978760,11.000000,16.290905,17.107285,52.652164
461772270.337011,-0.211182,0.351242,0.109131,2.963807,-1.245951,-2.863510,-0.270158,-0.497169,-0.207381,1.307472,0.116184,-0.300189,281.336792,282.431335,11.000000,15.877446,18.480789,51.789837
461772270.370474,-0.082291,0.303207,0.004562,3.006635,-1.290267,-2.828104,-0.194234,-0.645006,-0.243188,1.333922,0.489344,-0.712415,281.566437,282.660980,11.000000,15.050519,19.373581,51.524502
461772270.403744,0.030350,0.321945,0.007111,3.127094,-1.334380,-2.729860,-0.027505,-0.671067,-0.227405,1.217540,0.878918,-0.934351,282.494415,283.588959,11.000000,13.603398,21.914597,51.126507
461772270.437112,0.121277,0.949249,-0.153824,-2.988017,-1.365895,-2.592665,0.105802,-0.422288,-0.238811,0.890153,1.336428,-0.802328,286.031189,287.125732,11.000000,11.260442,23.631500,50.529514
461772270.470410,-0.064423,1.249161,-0.089462,-2.828082,-1.394823,-2.487687,0.204854,0.075792,-0.348159,1.409116,2.009137,0.108738,288.829254,289.923798,11.000000,8.193928,24.833328,49.302372
461772270.503838,-0.814560,1.489761,2.117752,-2.485576,-1.493110,-2.222110,-0.287821,0.373149,0.554865,4.666028,2.552398,0.710170,291.299927,292.394470,11.000000,7.229182,25.932144,48.373722
461772270.537097,-0.302521,1.518829,0.082718,-1.913844,-1.527594,-1.661015,-0.156028,0.100756,0.639282,-0.160532,-0.237918,0.159393,297.114105,298.208649,11.000000,5.230781,27.992416,46.516422
461772270.570477,-0.422592,1.671478,-0.133514,-2.078899,-1.529685,-1.826153,-0.253475,0.584646,-0.105216,0.053034,-0.456445,0.097322,299.388885,300.483429,11.000000,5.471968,29.331619,45.620930
461772270.603988,-0.088837,1.230331,0.208740,-2.244461,-1.524942,-1.952091,-0.386768,0.672529,-0.162111,-0.324365,-1.617386,-0.209982,299.289948,300.384491,11.000000,5.782063,29.571976,45.123440
461772270.637118,0.503021,1.839767,0.276230,-1.813949,-1.519396,-1.501259,-0.038971,0.231652,0.196370,0.953924,0.881410,-0.697263,297.580994,298.675537,11.000000,6.126613,29.915359,44.327450
461772270.670437,0.145767,0.931213,-0.166092,-1.756804,-1.493022,-1.448620,0.635651,0.800173,0.138845,-0.698254,-1.076102,-0.506160,296.326599,297.421143,11.000000,5.437507,30.190079,44.062122
461772270.703957,-0.014435,0.947189,-0.174484,-1.868466,-1.491570,-1.554254,0.221430,-0.065650,-0.189304,-0.107970,0.294787,0.217930,298.067657,299.162201,11.000000,5.058500,30.361755,44.294285
461772270.737160,0.006882,1.000473,-0.166107,-1.781472,-1.509163,-1.495534,0.055731,-0.031426,-0.190371,0.437230,0.168198,0.189216,297.605560,298.700104,11.000000,4.645039,30.224411,44.559620
461772270.770441,-0.079773,0.941406,-0.062454,-1.494586,-1.516843,-1.177788,0.053847,0.003179,-0.101103,0.836647,-1.455586,0.268230,297.152527,298.247070,11.000000,5.024046,30.464783,43.929462
461772270.803757,-0.185226,0.742996,0.529205,-0.930457,-1.509258,-0.565182,-0.049287,-0.101318,0.016053,1.138794,-1.358668,0.063389,297.427032,298.521576,11.000000,5.299689,30.739471,43.199810
461772270.837109,-0.035187,0.682877,0.307037,-0.710992,-1.485549,-0.338588,-0.070169,-0.281555,0.626084,0.313527,1.030719,-0.403498,294.316589,295.411133,11.000000,5.782063,31.632263,41.740498
461772270.870514,0.035904,0.428909,-0.036545,-0.807071,-1.475317,-0.462243,0.077447,-0.447975,0.015291,0.150426,-0.023497,-0.317378,290.787476,291.882019,11.000000,5.644242,33.143127,40.413860
461772270.903810,0.051315,0.600296,0.016434,-0.760937,-1.469288,-0.383916,0.113032,-0.615183,0.047445,0.396850,-1.289846,0.139995,293.653381,294.747925,11.000000,5.609785,33.452164,39.916370
461772270.937155,0.157150,1.233002,0.563980,-0.634650,-1.453831,-0.221426,0.104056,-0.054309,0.190838,0.995221,-0.830567,0.015549,293.088226,294.182770,11.000000,5.885426,33.383499,39.319386
461772270.970428,0.120117,0.815475,-0.218201,-0.634822,-1.447849,-0.191427,0.339056,0.204494,0.979361,-1.216468,-2.015226,0.136114,291.487274,292.581818,11.000000,6.953535,32.937088,38.224903
461772271.003810,0.193970,0.764374,0.251389,-1.013067,-1.469393,-0.517306,0.291089,-0.346288,-0.193478,-0.918660,-0.397777,-0.299857,289.286835,290.381378,11.000000,7.160267,32.112991,38.423901
461772271.037196,0.386368,1.083069,0.117493,-1.508312,-1.481789,-1.039419,0.282686,-0.231668,0.256939,-1.697480,1.871636,-0.001455,287.169617,288.264160,11.000000,6.953538,31.494904,39.087223
461772271.070465,0.269302,1.561584,0.264008,-1.738969,-1.465916,-1.372280,0.692536,0.274324,0.053400,-0.697775,3.740934,-0.705417,286.294922,287.389465,11.000000,4.197124,30.052719,41.342518
461772271.103826,0.309967,2.369034,0.893433,-2.156885,-1.438923,-1.889967,0.432087,0.686020,0.231242,-2.073036,-0.095227,0.433745,293.328949,294.423492,11.000000,1.440705,28.610519,42.470158
461772271.137140,-0.122116,2.077957,0.541534,-2.706202,-1.397592,-2.424856,-0.049429,1.092920,0.385273,-2.628282,-0.121417,1.468008,298.537537,299.632080,11.000000,0.510414,27.477371,43.100323
461772271.170457,-0.299255,1.142731,-0.281921,-3.059054,-1.340681,-2.755418,-0.402948,0.387871,-0.400104,-1.683553,-1.621089,1.354748,300.635925,301.730469,11.000000,1.165061,24.970688,44.261135
461772271.203839,-0.273575,0.923309,0.100540,3.065462,-1.323764,-2.913785,-0.139554,-0.011818,-0.433120,0.089581,1.335819,1.116791,298.727600,299.822144,11.000000,2.164262,22.670044,46.085270
461772271.236291,-0.064255,1.114853,0.167603,2.979272,-1.316109,-3.032109,-0.226812,0.086076,-0.052220,-0.175542,0.239728,0.867040,296.349640,297.444183,11.000000,2.681089,22.223648,46.715420
461772271.270487,0.050034,0.851227,0.037186,2.876183,-1.310182,3.121346,0.054420,0.055329,-0.208659,0.207934,0.924420,1.164496,292.191742,293.286285,11.000000,2.508811,21.708572,47.279240
461772271.303819,-0.122177,0.428833,-0.026733,2.804874,-1.311619,2.996194,-0.124210,-0.375094,-0.245922,0.413594,1.938426,0.717973,292.353455,293.447998,11.000000,1.647431,22.429672,47.113407
461772271.337705,-0.356369,0.411697,-0.113571,2.800752,-1.316023,2.956552,-0.206424,-0.538887,-0.264261,0.499240,2.192779,0.397666,292.324158,293.418701,11.000000,0.820506,22.910416,46.980740
461772271.370579,-0.372177,0.464890,-0.012085,2.832324,-1.350582,2.902526,-0.422853,-0.564153,-0.321646,0.999936,1.062940,-0.227765,295.578979,296.673523,11.000000,-1.350170,24.249588,46.615910
461772271.403785,-0.182983,0.542099,0.081985,2.853486,-1.390935,2.896346,-0.331058,-0.495755,-0.132671,1.365454,0.775629,-0.399012,301.557556,302.652100,11.000000,-3.555306,25.485748,45.886265
461772271.437094,-0.044449,0.858551,0.200699,2.879368,-1.438567,2.904530,-0.182539,-0.389220,-0.043002,1.378525,0.416809,-0.473419,303.499207,304.593750,11.000000,-4.657873,26.721924,45.289272
461772271.470436,0.089905,1.028091,0.481079,2.972498,-1.480145,2.999997,-0.059684,-0.137343,0.111463,0.967447,-0.560411,-0.651047,305.450836,306.545380,11.000000,-5.588167,28.061096,44.062138
461772271.503778,0.702469,1.218643,0.615387,3.068262,-1.505386,3.123599,0.195635,0.096056,0.517804,0.768881,-0.677772,-0.059681,307.734070,308.828613,11.000000,-5.829351,29.468948,43.166645
461772271.537063,0.028824,1.275040,0.713425,2.645271,-1.525413,2.693128,0.611681,0.274879,0.547188,0.623532,0.438851,0.911426,307.526550,308.621094,11.000000,-5.140245,30.979813,42.105335
461772271.570442,-0.350266,1.067871,0.682022,2.194479,-1.503610,2.257844,-0.025672,0.277296,0.674216,-0.468941,-0.657183,0.884718,306.794830,307.889374,11.000000,-4.761236,31.494888,42.005840
461772271.603511,-0.158646,1.320786,-0.347046,2.204281,-1.478994,2.260330,-0.594012,0.084594,0.563913,-0.173876,0.890868,0.323754,304.701477,305.796021,11.000000,-3.865401,32.387650,41.939503
461772271.637068,0.581284,2.036575,0.227844,2.184239,-1.477084,2.215728,-0.594427,0.870126,-1.069312,0.481272,-0.209569,0.040820,303.067993,304.162537,11.000000,-3.072930,32.765381,42.304340
461772271.670452,0.172913,0.662704,-0.088196,1.625852,-1.518698,1.718335,0.529288,1.037932,0.224979,1.322701,-3.296935,-0.766246,304.284760,305.379303,11.000000,-2.935110,33.177429,41.707348
461772271.703864,-0.546402,0.724274,-0.548035,1.429480,-1.539717,1.589248,-0.495792,-0.342184,-0.476702,0.471460,0.241597,-0.723829,303.905548,305.000092,11.000000,-2.831743,33.898529,41.740520
461772271.737115,-0.233109,1.365051,-0.575989,-0.310568,-1.539275,-0.147388,-0.179669,-0.000144,-0.496161,1.368276,-0.447294,-1.176147,299.358490,300.453033,11.000000,-2.969567,34.241913,41.209866
461772271.770598,-0.001434,1.271057,-0.372269,-0.250296,-1.455230,-0.080406,-0.086307,0.426760,-0.381753,2.799083,0.183417,-0.233293,299.050110,300.144653,11.000000,-3.210753,35.306396,40.911373
461772271.803775,0.219238,1.019043,-0.021088,-0.124477,-1.381297,-0.021887,0.121028,0.004779,0.039296,2.232152,2.776080,-0.119496,301.657623,302.752167,11.000000,-4.382232,37.572708,37.727436
461772271.837122,0.160385,0.887512,0.001907,-0.018957,-1.328509,0.046669,0.205582,0.013919,0.267835,0.906460,-0.109769,0.466442,303.222687,304.317230,11.000000,-6.001626,39.735992,34.841984
461772271.870401,0.185699,0.636871,0.013458,-0.022328,-1.313150,0.098363,0.202771,-0.225110,0.267681,0.328930,-2.573373,0.563438,305.768616,306.863159,11.000000,-5.967171,40.045044,33.946499
461772271.903808,0.151947,0.960754,-0.086349,-0.032027,-1.299261,0.180189,0.181058,-0.345151,0.233222,0.612180,-2.627378,0.572241,305.043121,306.137665,11.000000,-4.244411,40.457108,33.349514
461772271.937166,-0.144852,0.797546,-0.175980,-0.066562,-1.277604,0.219070,0.071194,0.049494,0.107278,0.891822,-1.853288,0.076214,301.694000,302.788544,11.000000,-1.281261,40.731812,32.686184
461772271.970820,-0.315674,1.015518,-0.199478,-0.122530,-1.245619,0.225765,-0.227432,-0.054543,0.174122,0.882255,-1.615621,-0.007970,298.586517,299.681061,11.000000,-0.385424,41.006516,31.890202
461772272.003806,-0.028015,0.964783,0.024551,-0.123260,-1.206470,0.213909,-0.271865,0.081154,0.154138,1.282273,1.580692,-0.467432,293.600311,294.694855,11.000000,0.407047,41.864975,30.729389
461772272.037157,0.406784,1.157425,0.079117,-0.110487,-1.147257,0.160407,0.419340,0.227291,0.597723,0.667952,-0.262446,-0.495242,290.975586,292.070129,11.000000,-0.661065,42.792099,29.502247
461772272.070448,0.541931,1.142380,-0.232880,-0.177743,-1.135402,0.138102,0.469760,0.254856,0.295647,0.187319,-1.431458,-0.344523,292.515533,293.610077,11.000000,-1.143441,42.929459,28.971584
461772272.103954,0.483261,1.261841,-0.137054,-0.207459,-1.125877,0.115662,0.645899,0.296360,0.185622,0.391674,0.537311,-0.124673,295.725800,296.820343,11.000000,-1.419082,42.448715,28.440929
461772272.137290,0.289429,1.476212,0.276062,-0.171959,-1.125952,0.124394,0.316583,0.478121,0.788778,-0.754087,0.767316,0.142446,294.532806,295.627350,11.000000,-1.522448,42.483063,28.076099
461772272.170939,0.363510,1.451035,-0.078140,-0.148371,-1.186545,0.128890,0.657817,0.572921,0.409748,-2.483127,0.889705,0.445220,294.874329,295.968872,11.000000,-1.625811,42.174026,28.706257
461772272.203813,-0.324509,1.479996,-0.363403,-0.046831,-1.287403,0.175489,-0.007326,0.407335,0.075818,-3.516159,2.039898,0.761372,295.442566,296.537109,11.000000,-2.004821,40.560135,30.994724
461772272.237143,-0.835617,1.561234,-0.466537,-0.107807,-1.418927,0.089415,-0.879260,1.150502,-0.239728,-4.137909,-0.454214,-1.613446,296.027588,297.122131,11.000000,-1.729180,36.576920,35.571644
461772272.270542,-0.480240,0.878693,-0.040359,-0.982436,-1.455627,-0.759639,-0.492848,0.122637,-0.012318,-1.896207,-1.076521,-2.244048,297.904755,298.999298,11.000000,-2.556106,32.731049,39.418911
461772272.303808,-0.406387,0.770889,0.009262,-1.583161,-1.430219,-1.337794,-0.297762,-0.218819,-0.005959,-2.150947,-0.855660,-0.668257,299.267639,300.362183,11.000000,-3.107388,31.014145,41.077213
461772272.337425,0.031281,1.149124,-0.275345,-2.089094,-1.421011,-1.828208,-0.357647,0.172299,-0.160734,-2.059046,-0.687837,0.472722,303.188660,304.283203,11.000000,-3.348574,27.752029,43.763660
461772272.370539,-0.022385,0.623245,-0.086456,-2.515857,-1.397676,-2.256470,0.407042,0.240915,-0.518434,-2.303964,0.981921,1.521738,303.659454,304.753998,11.000000,-2.314919,24.112213,45.554630
461772272.403769,-0.048889,0.592651,-0.180069,-2.820886,-1.330821,-2.572250,0.059056,-0.404846,-0.351643,-2.898381,0.812803,0.401333,302.746124,303.840668,11.000000,-1.729180,22.360977,46.516445
461772272.437114,-0.295303,0.569153,-0.127319,-2.873102,-1.255614,-2.693902,-0.046826,-0.380656,-0.435877,-2.034497,2.377828,0.272778,302.561035,303.655579,11.000000,-2.487194,18.789810,47.511433
461772272.470442,-0.182968,0.612030,-0.207932,-2.861891,-1.215077,-2.747903,-0.224976,-0.295261,-0.471892,-0.993416,1.766109,0.135547,303.356995,304.451538,11.000000,-4.726781,16.008423,48.406910
461772272.503724,-0.217590,0.465958,-0.236237,-2.827535,-1.193980,-2.784319,-0.069297,-0.317811,-0.557895,-0.572507,2.239978,0.287766,307.174255,308.268799,11.000000,-6.415090,15.012604,48.174747
461772272.537122,-0.335556,0.261124,-0.104111,-2.803064,-1.192918,-2.822722,-0.197250,-0.596365,-0.591631,0.178355,1.366134,0.451056,314.084656,315.179199,11.000000,-9.171511,13.982483,48.108418
461772272.570480,-0.387283,0.579391,0.237625,-2.808612,-1.224010,-2.834870,-0.231665,-0.643503,-0.343059,1.428817,-0.649994,0.405061,321.121307,322.215851,11.000000,-10.653088,14.840942,47.478252
461772272.603789,-0.393875,0.908417,0.505035,-2.803052,-1.291139,-2.778687,-0.295612,-0.381759,-0.022734,2.549076,-1.885713,0.006246,321.443420,322.537964,11.000000,-9.826159,16.969894,46.416927
461772272.636153,0.611176,2.194366,1.591476,-2.704940,-1.365658,-2.617061,-0.230701,0.053545,0.564678,2.326337,-1.493781,-0.321450,318.461700,319.556244,11.000000,-8.723589,18.274734,45.620953
461772272.670459,-0.129822,0.973648,0.586334,-2.690999,-1.408405,-2.593512,0.907066,1.392826,1.144803,0.550067,0.365074,1.273973,314.309601,315.404144,11.000000,-7.310921,19.819931,45.057125
461772272.703840,-0.924698,0.962662,0.069855,-2.843903,-1.408810,-2.748131,-0.082517,-0.013261,0.432149,-0.578665,-0.101455,0.531877,310.589600,311.684143,11.000000,-6.966372,20.369339,44.460133
461772272.737035,-0.974899,2.290085,-0.816864,-2.691514,-1.452294,-2.607942,-0.916250,0.836878,-1.100409,1.783392,-0.997648,-0.484254,309.499908,310.594452,11.000000,-7.104192,20.712723,44.194805
461772272.770568,-0.394012,0.239029,-0.298294,-2.652424,-1.477908,-2.466044,0.156378,0.312676,0.480837,0.533257,-3.442392,0.260131,308.795197,309.889740,11.000000,-6.139449,21.674210,43.000820
461772272.803781,-0.146942,0.320480,-0.462921,-2.514175,-1.501996,-2.281198,-0.405733,-0.885040,-0.450932,0.997144,-0.627863,-0.391464,306.632965,307.727509,11.000000,-4.175499,23.013382,42.171658
461772272.837225,-0.020432,0.578430,-0.732712,-1.880621,-1.497866,-1.604264,0.083526,-0.522412,-0.573303,1.513768,-1.816159,-1.145514,301.897278,302.991821,11.000000,-3.555306,23.906174,41.574665
461772272.870443,-0.115128,1.225204,-0.573044,-1.004289,-1.445650,-0.676464,-0.118251,-0.071342,-0.690258,3.522408,-1.503253,-1.061298,299.540009,300.634552,11.000000,-2.383828,25.760422,39.850025
461772272.903809,0.282516,0.922134,-0.448257,-0.698171,-1.360898,-0.297553,0.145122,0.622183,-0.291228,2.430224,-2.057074,-0.232066,298.355530,299.450073,11.000000,-2.349373,27.855042,37.362568
461772272.937090,0.287277,0.814896,-0.342209,-0.516472,-1.348806,-0.100140,0.391241,-0.053327,-0.256804,0.714566,-0.076498,1.678594,297.698608,298.793152,11.000000,-1.901458,28.644821,36.533413
461772272.969679,0.426849,1.277802,0.539246,-0.268591,-1.319868,0.255503,0.433737,0.409949,0.779012,2.150138,-6.629616,1.581620,293.776703,294.871246,11.000000,0.579319,29.537613,34.344448
461772273.003809,0.337830,1.017517,-0.105896,-0.314528,-1.305908,0.383816,0.525482,0.182431,0.646953,0.487466,-2.267901,0.450604,288.677704,289.772247,11.000000,4.024842,30.636429,32.619816
461772273.037082,0.188202,0.976105,-0.191254,-0.214700,-1.295930,0.478208,0.395656,0.055056,0.159291,0.208674,0.712877,0.859203,280.522003,281.616547,11.000000,6.023246,30.636429,31.492168
461772273.070469,-0.113983,0.879440,-0.422485,-0.072544,-1.303552,0.636803,0.051840,-0.031504,0.023558,0.187506,-1.040109,0.752066,272.615021,273.709564,11.000000,7.677097,30.911133,30.895184
461772273.103735,-0.626862,0.861526,0.078827,-0.115815,-1.275381,0.693491,-0.276889,-0.023881,-0.307935,1.433542,-4.999006,0.244704,270.888794,271.983337,11.000000,9.262040,30.293045,29.303211
461772273.137142,-0.663223,0.834015,-0.150238,-0.154508,-1.216302,0.733649,-0.609804,-0.103807,0.192743,1.469368,1.930180,-0.586586,269.156952,270.251495,11.000000,9.847779,30.327377,28.474056
461772273.170457,0.283997,1.236237,0.103760,-0.125257,-1.186034,0.647569,0.202546,0.266457,0.340889,1.154992,3.809773,-1.168931,265.978424,267.072968,11.000000,10.226787,30.773788,26.649914
461772273.203805,0.039474,1.129288,0.100235,-0.097140,-1.146653,0.610569,0.165448,0.164567,0.748574,0.705897,-0.267887,-0.336273,260.754608,261.849152,11.000000,8.883033,31.220169,25.887096
461772273.237148,0.086166,1.104340,0.002701,-0.178960,-1.133208,0.590321,0.118934,0.220658,0.441174,0.278465,-1.955698,-0.306861,268.589722,269.684265,11.000000,7.367002,31.906921,25.024784
461772273.270375,0.364258,1.099792,0.138550,-0.230383,-1.125524,0.567406,0.416802,0.204593,0.552747,0.020313,-0.497081,-0.400230,270.005188,271.099731,11.000000,7.056904,32.078598,24.527294
461772273.303781,0.558609,1.624237,0.062637,-0.266535,-1.132497,0.531590,0.452222,0.460675,0.536840,-0.686798,0.141032,-0.321710,267.917145,269.011688,11.000000,6.505619,32.284622,23.598644
461772273.337191,0.915649,1.700409,0.047333,-0.285266,-1.183360,0.498355,0.902892,0.834068,0.457548,-2.464345,0.484019,0.558010,268.073425,269.167969,11.000000,6.023246,31.391846,24.328289
461772273.370420,-0.266068,1.377060,-0.397797,-0.191460,-1.294039,0.548828,0.452401,0.290113,0.017497,-3.490637,1.953750,1.635988,268.121918,269.216461,11.000000,5.816517,30.567719,25.455936
461772273.403777,-1.046021,1.521652,-0.274384,-0.129765,-1.425196,0.586291,-1.349649,1.476096,-0.225869,-4.334903,-0.812903,-0.715854,269.033081,270.127625,11.000000,6.367802,28.644791,28.507221
461772273.437258,-0.743454,0.974106,-0.269424,-1.361018,-1.436831,-0.590678,-0.641427,0.273578,-0.220858,-2.354883,-1.743952,-4.158769,268.972443,270.066986,11.000000,5.919883,26.687515,31.326336
461772273.470438,0.074341,0.316467,0.075851,-1.706517,-1.318950,-0.918686,-0.098619,-0.737756,-0.184581,-1.860889,-0.460449,-2.439000,268.947998,270.042542,11.000000,5.506419,26.206772,32.387653
461772273.503941,-0.149399,1.692688,0.046402,-2.029306,-1.330736,-1.287932,0.263084,0.045354,0.414295,-3.191391,2.825825,2.242042,274.367310,275.461853,11.000000,4.300483,25.279648,34.543438
461772273.537069,-0.074860,1.053650,-0.327271,-2.434627,-1.310232,-1.727487,0.019264,0.289111,-0.323736,-3.258960,0.833885,0.367887,278.522980,279.617523,11.000000,3.611381,23.356720,37.462055
461772273.570390,-0.347458,0.434158,-0.056107,-2.605940,-1.228660,-1.964349,0.051901,-0.110100,-0.502514,-3.069915,2.041581,0.317038,279.296997,280.391541,11.000000,3.370194,21.948868,38.954517
461772273.603792,-0.403320,0.605408,-0.025818,-2.649229,-1.162332,-2.075339,-0.263121,-0.562065,-0.364440,-1.839637,1.744182,-0.085406,282.827118,283.921661,11.000000,1.957530,19.236160,41.242985
461772273.637147,-0.222870,0.563660,-0.191025,-2.623844,-1.124913,-2.098181,-0.189882,-0.296823,-0.400550,-0.812954,1.181907,-0.394045,287.308472,288.403015,11.000000,-0.006420,17.759644,42.669117
461772273.671893,-0.305588,0.411514,-0.212158,-2.572673,-1.100179,-2.106086,-0.015367,-0.402885,-0.584802,-0.195984,1.359251,0.005414,294.440063,295.534607,11.000000,-1.660271,17.347595,43.465107
461772273.703763,-0.301270,0.290955,0.092743,-2.553880,-1.101995,-2.107459,-0.057286,-0.518194,-0.547028,0.203878,1.165312,0.105565,297.411621,298.506165,11.000000,-2.142644,17.141556,43.597767
461772273.737180,-0.302399,0.532730,0.630264,-2.489173,-1.145486,-2.057768,-0.063377,-0.575370,0.008777,1.659717,-0.435971,0.236350,302.725067,303.819611,11.000000,-3.072936,17.725296,43.033955
461772273.770499,-0.375565,0.851135,0.960876,-2.426227,-1.201703,-1.961491,-0.100791,-0.264137,0.525309,2.237704,-0.878742,0.091466,304.829742,305.924286,11.000000,-2.935116,19.854263,42.105297
461772273.803991,-0.109253,1.955750,1.058533,-2.304967,-1.239438,-1.814342,-0.122098,0.447511,1.061611,1.418960,0.098387,-0.540643,303.183624,304.278168,11.000000,-3.279668,21.090424,41.176655
461772273.837118,-0.260941,0.777084,0.535660,-2.221681,-1.240703,-1.768015,0.278965,1.028246,0.558495,-0.403092,1.390830,-0.000132,298.329437,299.423981,11.000000,-3.899862,23.356750,39.651020
461772273.870446,-0.940369,0.756363,0.240784,-2.256312,-1.230505,-1.844467,-0.274306,-0.454147,0.207528,-0.546211,1.221577,0.349389,300.228119,301.322662,11.000000,-5.346978,23.700134,39.120365
461772273.903800,-0.845688,2.601761,0.549805,-2.185817,-1.246169,-1.792626,-0.471438,0.761871,-0.574258,1.199679,-0.133881,0.116373,300.504730,301.599274,11.000000,-5.725985,24.283875,39.153530
461772273.937151,-0.265121,-0.003113,-0.362244,-2.306760,-1.268143,-1.819584,-0.496769,0.614161,0.283192,0.494055,-1.986430,0.760195,303.833466,304.928009,11.000000,-4.588961,24.798935,39.385693
461772273.970492,-0.274216,0.207748,-0.360382,-2.255396,-1.299792,-1.748889,-0.070392,-0.871416,-0.493639,1.298359,-0.945144,-0.037053,300.766083,301.860626,11.000000,-2.900655,26.000763,38.622868
461772274.003788,-0.210236,0.955765,-0.391281,-2.112683,-1.301278,-1.558429,-0.071866,-0.267137,-0.620254,1.249862,-1.890156,-1.429821,296.681702,297.776245,11.000000,-2.108184,26.584503,38.258038
461772274.037119,-0.001480,1.073212,-0.669922,-1.864444,-1.293002,-1.205064,0.139663,-0.038552,-0.456024,2.725574,-3.227740,-1.538187,293.491638,294.586182,11.000000,-1.212347,28.507462,36.069073
461772274.070505,0.005112,1.521652,-0.595306,-1.267101,-1.238114,-0.461723,0.316746,0.576483,-0.497643,4.987798,-1.850794,-0.567133,289.076050,290.170593,11.000000,-0.350966,31.838242,32.122303
461772274.103732,0.147919,0.787628,-0.165955,-1.064478,-1.221867,-0.205045,0.516236,0.056385,-0.019209,1.097034,-0.832197,1.370650,285.652954,286.747498,11.000000,0.028040,33.177429,29.966511
461772274.137146,0.027939,1.205414,0.826111,-0.844056,-1.227039,0.038098,0.482954,-0.145658,0.587489,3.472089,0.673662,1.099290,281.759186,282.853729,11.000000,1.302882,35.478088,26.086079
461772274.170476,-0.052155,1.145477,0.167389,-0.751996,-1.211199,0.116269,0.188226,0.209439,0.424389,-0.322853,0.251860,0.046005,275.902069,276.996613,11.000000,2.164262,36.611237,23.664944
461772274.203754,0.124680,0.966629,-0.078125,-0.689268,-1.218385,0.171476,0.307877,-0.000021,0.170250,0.502766,0.044960,1.045041,272.530060,273.624603,11.000000,2.853367,37.229324,22.603626
461772274.237134,-0.055527,1.046753,-0.015076,-0.641901,-1.224780,0.232397,0.300851,0.073078,0.224528,0.489728,-0.902063,1.332545,271.439545,272.534088,11.000000,3.714747,37.538361,21.641808
461772274.270403,-0.104111,0.850891,-0.272736,-0.575376,-1.229145,0.344266,0.126787,0.104550,0.266022,0.513201,-1.167054,0.696069,269.369995,270.464539,11.000000,5.437510,37.469681,21.111149
461772274.303721,-0.148926,0.845856,-0.422882,-0.551258,-1.223907,0.438893,0.046854,-0.116033,-0.064208,0.611544,-1.999825,0.424513,264.382111,265.476654,11.000000,6.850172,37.366669,19.685009
461772274.337134,-0.496780,1.049026,-0.127701,-0.576003,-1.200345,0.519535,-0.063321,-0.010701,-0.147261,1.481460,-3.622339,0.227723,262.541382,263.635925,11.000000,7.367002,37.675720,18.855850
461772274.370629,-0.199921,1.100357,0.189041,-0.581761,-1.173040,0.564673,-0.283933,0.127094,0.195929,2.212241,-2.161723,-0.252177,259.998749,261.093292,11.000000,8.090562,38.328140,16.235733
461772274.403787,0.064865,1.248154,0.820786,-0.384567,-1.080383,0.597077,-0.023225,0.218219,0.625631,1.522286,6.133019,-0.852515,253.042862,254.137405,11.000000,7.814921,39.152252,15.041759
461772274.437212,0.144958,1.214874,0.086014,-0.258069,-1.045539,0.568330,0.324491,0.339670,0.873258,0.265379,0.796314,-0.445374,253.496429,254.590973,11.000000,7.642643,39.186600,14.809597
461772274.469665,0.271225,1.616699,-0.047104,-0.376081,-1.052514,0.562785,0.262588,0.371990,0.551892,-0.583073,-3.950626,0.201797,263.309814,264.404358,11.000000,6.850172,39.839020,14.975426
461772274.503793,0.683594,1.917419,0.145020,-0.453321,-1.080339,0.516275,0.477514,0.734581,0.376350,-1.737918,0.780053,-0.588626,267.423218,268.517761,11.000000,6.608985,40.354095,15.937241
461772274.537386,0.170502,1.432175,-0.441483,-0.476338,-1.174735,0.407100,0.957458,0.744496,0.417701,-4.168776,3.141875,0.652734,262.547119,263.641663,11.000000,6.953538,40.560135,17.595547
461772274.570441,-0.956619,1.817230,-0.493576,-0.451064,-1.308503,0.330562,-0.043522,0.574867,-0.226003,-3.797385,2.445358,0.836977,265.221252,266.315796,11.000000,8.297291,39.495636,23.598614
461772274.603305,-0.359879,1.080215,-0.006195,-0.975500,-1.379205,-0.183273,-0.798954,0.835528,-0.386797,-3.851873,-3.536667,-3.330016,269.835724,270.930267,11.000000,9.813319,38.122131,30.099171
461772274.637241,0.117889,0.561569,-0.340012,-1.628123,-1.307190,-0.732106,-0.054775,-0.007876,0.009973,-2.379580,-2.471523,-2.354573,270.115204,271.209747,11.000000,10.020051,37.229340,32.553455
461772274.670425,0.047745,2.056778,-0.146759,-1.775904,-1.273730,-0.884477,0.416311,-0.182045,-0.735888,-0.893267,1.373606,0.703928,272.096558,273.191101,11.000000,9.503224,35.752808,36.301228
461772274.703796,0.138809,1.487778,-0.210602,-1.968734,-1.341852,-1.160031,0.256961,1.082871,-0.234706,-2.826524,0.356823,3.699338,274.054626,275.149170,11.000000,9.641047,32.937088,39.485165
461772274.737287,-0.171692,0.584503,-0.232773,-2.585575,-1.314912,-1.918425,0.030012,-0.396502,-0.637307,-3.474489,3.952527,1.125775,275.424347,276.518890,11.000000,9.330949,30.979813,41.707294
461772274.770447,-0.231476,0.577515,-0.026825,-2.685279,-1.238417,-2.153494,-0.181981,-0.389208,-0.472138,-2.622800,3.714784,0.549047,274.077209,275.171753,11.000000,8.193928,25.588745,46.184711
461772274.803785,-0.207413,0.601044,-0.010834,-2.667231,-1.188174,-2.243330,-0.040064,-0.318039,-0.314537,-1.241567,2.606941,-0.038152,284.497253,285.591797,11.000000,4.610584,20.987442,49.766644
461772274.837068,-0.347946,0.409454,-0.153015,-2.637482,-1.174839,-2.269701,-0.100992,-0.374151,-0.427847,-0.144684,1.156723,0.265289,297.378998,298.473541,11.000000,1.681889,18.755478,50.927456
461772274.870456,-0.306152,0.319855,-0.116440,-2.637811,-1.188256,-2.297077,-0.140192,-0.596116,-0.483474,0.418756,0.582529,0.535183,298.224060,299.318604,11.000000,0.820506,18.515121,51.358616
461772274.903607,-0.321182,0.329224,0.002228,-2.628543,-1.213878,-2.295495,-0.146241,-0.619397,-0.366463,0.921635,-0.006963,0.202072,303.966309,305.060852,11.000000,0.028034,18.755478,51.524441
461772274.937051,-0.127655,0.685425,0.388107,-2.569178,-1.246628,-2.223733,-0.081391,-0.503321,-0.078522,1.526613,-0.222265,-0.292591,304.639862,305.734406,11.000000,-0.213152,20.300674,51.292286
461772274.970467,-0.142014,1.701080,1.386139,-2.405977,-1.284633,-2.070374,0.098354,-0.065459,0.334281,1.807448,0.989113,-0.491620,304.077911,305.172455,11.000000,-0.178695,21.090454,50.463123
461772275.003825,0.176483,1.413803,0.607605,-2.277989,-1.299874,-1.957864,0.239239,0.950141,1.258820,0.369647,0.573724,0.006623,303.190155,304.284698,11.000000,-1.040075,22.773026,49.567646
461772275.037130,-0.178207,0.789825,0.514038,-2.281597,-1.311764,-2.005827,0.370600,0.447165,0.440485,-0.396728,1.211492,0.645908,305.244812,306.339355,11.000000,-2.383828,22.326614,48.937489
461772275.070579,-0.783783,2.115509,-0.348541,-2.340310,-1.326278,-2.127900,-0.584558,0.163550,0.013992,0.801905,1.242417,0.336333,306.471405,307.565948,11.000000,-3.383031,22.154922,48.970661
461772275.103806,-0.556244,0.484512,-0.158722,-2.289011,-1.334033,-2.053670,-0.204089,2.267293,0.284738,-0.887912,-3.102103,0.266666,308.713715,309.808258,11.000000,-3.693130,21.433823,48.738491
461772275.137158,-0.420074,-0.139435,-0.325729,-2.426418,-1.342670,-2.177367,-0.354478,-0.981584,-0.587092,0.061709,0.979029,0.706630,310.014313,311.108856,11.000000,-3.451943,21.399490,48.705326
461772275.170401,-0.237869,0.532257,-0.574753,-2.358837,-1.357113,-2.112931,-0.125044,-0.723762,-0.585068,0.659140,-0.363688,-0.615017,310.513672,311.608215,11.000000,-3.107390,21.262131,48.506329
461772275.203810,-0.130585,1.009781,-0.504684,-2.200305,-1.340630,-1.889280,-0.034997,-0.171138,-0.608819,1.280357,-2.960513,-1.669000,305.860260,306.954803,11.000000,-2.108187,21.639847,47.809834
461772275.237170,-0.145981,1.106171,-0.680115,-2.080402,-1.335088,-1.711196,0.060822,-0.037382,-0.600619,2.316596,-3.379764,-1.623962,305.677124,306.771667,11.000000,0.338136,24.215210,45.853031
461772275.270448,0.080017,1.716614,-0.231323,-1.431475,-1.312442,-0.881489,0.222100,0.501404,-0.521237,4.557145,-2.870399,-0.656630,305.664978,306.759521,11.000000,1.544068,25.897781,44.294231
461772275.303780,0.084976,0.833618,0.000229,-1.123509,-1.291411,-0.523245,0.309488,0.027850,-0.104816,1.734695,-0.138408,0.850115,296.270081,297.364624,11.000000,3.542472,29.674942,40.645962
461772275.337167,0.145432,1.180923,1.014908,-0.862333,-1.288600,-0.257688,0.451111,-0.011243,0.654684,3.313886,1.270546,0.826184,288.505219,289.599762,11.000000,3.852568,32.456329,36.964527
461772275.370373,0.146301,1.021927,-0.015884,-0.707825,-1.244801,-0.152720,0.326158,0.127680,0.647740,0.350097,1.021263,-0.307870,288.085663,289.180206,11.000000,3.818113,33.658157,36.002712
461772275.403791,0.161057,0.815994,-0.170898,-0.639911,-1.243007,-0.106164,0.426467,-0.088892,0.180509,0.400640,0.673553,0.781808,284.626068,285.720612,11.000000,3.576926,34.653976,34.443897
461772275.437119,0.025330,0.904663,-0.240982,-0.546846,-1.251331,-0.008808,0.246897,-0.122118,0.025675,0.345197,-0.511072,0.898111,287.454590,288.549133,11.000000,3.576926,34.722656,33.382587
461772275.470378,-0.357803,1.041931,-0.267487,-0.484249,-1.243570,0.110156,-0.028878,0.106575,-0.068976,1.258020,-2.295572,0.738644,286.418427,287.512970,11.000000,4.920680,34.344925,31.823772
461772275.503788,-0.481476,0.892761,-0.110535,-0.457941,-1.193095,0.250224,-0.157608,-0.015071,0.340919,2.356133,-3.125335,0.722364,327.282959,328.377502,26.000000,4.784402,31.846832,18.607021
461772275.537116,-0.327057,0.989502,-0.110306,-0.416120,-1.144572,0.320252,-0.314359,-0.017772,0.267621,1.089356,0.497128,-0.388499,327.044067,328.138611,26.000000,6.610533,32.224503,16.584362
461772275.570479,0.150452,1.195816,0.033081,-0.398184,-1.116108,0.285829,0.163043,0.226724,0.312935,0.753470,2.644895,-0.872418,323.074158,324.168701,26.000000,5.473508,33.082825,14.694332
461772275.603732,0.328110,1.136124,0.159271,-0.283809,-1.068755,0.291826,0.299787,0.320343,0.853887,1.535503,3.116694,-0.126924,323.037872,324.132416,26.000000,4.784402,33.563477,14.362743
461772275.636466,0.267761,1.109619,-0.110886,-0.279410,-1.050873,0.290405,0.465125,0.268266,0.636817,0.019372,-2.326582,-0.122093,327.912140,329.006683,26.000000,3.199460,33.769485,13.102726
461772275.670395,0.154800,1.578293,-0.037964,-0.357677,-1.060017,0.295645,0.350943,0.266980,0.333697,-0.249313,-1.678223,0.173181,331.779419,332.873962,26.000000,3.544012,33.426163,12.306927
461772275.703743,0.546631,1.618103,-0.023926,-0.347086,-1.074019,0.271640,0.453637,0.901822,0.568292,-1.063876,2.484332,-0.319833,330.013855,331.108398,26.000000,3.406192,32.876816,12.041660
461772275.737083,-0.690735,1.618271,-0.512161,-0.266159,-1.206307,0.211964,0.166638,0.593587,0.028170,-3.650155,1.848123,0.813569,328.525421,329.619965,26.000000,2.854910,32.190155,14.031170
461772275.770450,-1.076172,1.355499,-0.089798,-0.410490,-1.321451,0.073833,-0.949650,0.627346,-0.161914,-3.881626,-2.486418,-1.382537,333.872284,334.966827,26.000000,2.648178,30.679535,17.081745
461772275.803761,-0.439911,0.666138,-0.139923,-1.123336,-1.337835,-0.567297,-0.572142,0.159307,-0.095257,-3.185695,-1.863425,-3.579479,335.250549,336.345093,26.000000,2.406991,30.164551,19.038090
461772275.837105,-0.154358,0.868256,-0.310989,-1.542242,-1.263667,-0.953347,-0.008835,-0.478108,-0.158269,-2.132981,-1.112135,-1.098599,335.371368,336.465912,26.000000,2.096893,29.100235,22.121822
461772275.870508,0.010910,1.728165,0.392853,-1.729920,-1.287514,-1.144116,0.149924,0.231263,-0.393502,-1.155959,0.930018,1.284658,338.391327,339.485870,26.000000,0.925418,28.138931,24.376606
461772275.904229,-0.007370,1.070343,-0.255173,-1.998724,-1.331475,-1.467382,0.325135,0.680280,-0.290920,-2.234766,0.072948,2.551345,341.093872,342.188416,26.000000,1.166604,27.211945,26.266628
461772275.937086,-0.289948,0.496414,-0.229340,-2.365875,-1.318793,-1.882166,0.200676,-0.153321,-0.432376,-3.297333,2.259448,0.695052,341.154388,342.248932,26.000000,1.338882,25.872986,27.559811
461772275.970430,-0.373657,0.587845,-0.192703,-2.542538,-1.251205,-2.145631,-0.112794,-0.452950,-0.488810,-2.608903,2.303559,0.354606,340.750793,341.845337,26.000000,1.407791,23.675690,31.008289
461772276.003869,-0.228622,0.446793,-0.175583,-2.575485,-1.205843,-2.263203,-0.130747,-0.261594,-0.467975,-1.385094,2.354473,0.130426,348.056885,349.151428,26.000000,-0.797342,20.517075,33.926235
461772276.037116,-0.195175,0.322052,-0.237961,-2.549218,-1.180238,-2.305668,0.072560,-0.440810,-0.509763,-0.554878,1.729987,-0.047330,352.712708,353.807251,26.000000,-2.106641,20.105072,34.920986
461772276.070380,-0.249741,0.305634,-0.145554,-2.474852,-1.197663,-2.285284,-0.024302,-0.625556,-0.432020,1.139799,0.618195,0.248767,1.368866,2.463417,26.000000,-3.967222,19.830414,35.119946
461772276.103821,-0.492447,0.589645,0.348511,-2.398626,-1.243732,-2.206198,-0.216312,-0.437743,-0.057096,1.895283,-0.319117,0.255341,4.440142,5.534693,26.000000,-5.000876,21.547058,34.324139
461772276.137134,-0.404236,1.559097,0.934692,-2.342718,-1.268275,-2.139617,-0.385344,-0.190108,0.275895,2.012130,-0.452116,0.044054,5.866199,6.960750,26.000000,-5.242064,22.954697,33.428867
461772276.170502,-0.088852,1.936966,1.623672,-2.157063,-1.299079,-1.945858,-0.016421,0.892661,1.175962,-0.144346,0.257516,0.107124,4.501393,5.595944,26.000000,-5.758894,25.666992,32.400959
461772276.203934,-0.074554,0.850876,0.539703,-2.178379,-1.299622,-1.985001,0.233077,0.921873,1.328786,-0.521389,1.458949,0.461940,2.507591,3.602142,26.000000,-6.379090,26.971619,32.003063
461772276.236657,-0.245697,-0.078659,-0.052078,-2.274410,-1.300382,-2.131014,0.237976,-0.683234,0.131311,-0.423685,0.660085,0.779315,2.562778,3.657329,26.000000,-6.689188,26.799957,32.301487
461772276.270810,-1.394196,1.186905,-1.200165,-2.280839,-1.328376,-2.138613,-0.706220,-0.625469,-0.901599,1.658815,-1.532808,0.292469,5.488740,6.583291,26.000000,-6.964829,27.143295,32.765697
461772276.303769,-0.255585,1.277496,-0.229095,-2.213718,-1.337919,-1.967474,-0.471257,2.318421,0.639686,-0.241463,-4.314171,-0.462958,5.684803,6.779354,26.000000,-5.414344,28.550919,32.400967
461772276.337129,-0.239151,0.075562,-0.267334,-2.201700,-1.344121,-1.931303,0.044498,-0.933159,-0.543731,0.507132,-0.305600,0.231178,5.568381,6.662932,26.000000,-4.449598,29.512238,32.003063
461772276.370493,0.140961,0.769516,-0.639038,-2.067206,-1.348009,-1.790156,0.056722,-0.853032,-0.355934,1.167324,-0.058651,-0.966746,356.729034,357.823578,26.000000,-3.243665,31.057205,31.505695
461772276.403774,0.200684,1.079880,-0.912231,-1.821703,-1.340652,-1.512342,0.361936,-0.204117,-0.695676,2.451492,-1.644885,-0.694680,355.063538,356.158081,26.000000,-2.485648,33.391815,30.179348
461772276.437091,0.126709,1.687134,-0.383179,-1.390540,-1.329768,-0.966831,0.371736,0.390586,-0.490515,4.348282,-3.852293,-0.399541,355.425262,356.519806,26.000000,-1.693177,35.074127,29.018803
461772276.470450,0.011993,0.748535,-0.109222,-1.082684,-1.289091,-0.524376,0.327546,0.795841,-0.041187,3.059431,-2.788213,0.564570,352.554871,353.649414,26.000000,-0.108237,38.644714,24.111355
461772276.503797,-0.121094,0.881088,0.567154,-0.895493,-1.291976,-0.280698,0.226809,-0.212846,0.062828,1.317600,-1.181279,1.453929,346.549591,347.644135,26.000000,2.096893,41.253998,19.402859
461772276.537056,-0.092331,1.025955,-0.076950,-0.695587,-1.240200,-0.061830,-0.019214,0.094770,0.938586,1.769121,0.393168,-0.433495,336.983948,338.078491,26.000000,3.509555,42.730316,15.457012
461772276.570437,0.205353,0.835663,-0.051315,-0.666399,-1.220354,-0.048215,0.266239,0.063709,0.159297,0.407950,0.483035,-0.162966,333.506866,334.601410,26.000000,4.026385,43.176651,14.296467
461772276.603789,0.099380,0.922714,-0.146347,-0.540855,-1.217996,0.061188,0.322097,-0.058267,0.196631,0.486171,0.085087,0.964025,331.850128,332.944672,26.000000,4.681039,43.897629,12.804333
461772276.637188,-0.129227,1.067886,-0.070175,-0.472383,-1.213446,0.159597,0.085414,0.130144,0.266335,0.825721,-0.989405,0.675980,332.328674,333.423218,26.000000,5.680243,43.863312,12.505909
461772276.670381,-0.103912,0.972916,-0.126907,-0.428237,-1.181962,0.245666,0.015281,0.005953,0.160626,1.596900,-1.537942,0.423813,331.643707,332.738251,26.000000,6.265983,44.103638,11.875896
461772276.703727,-0.135742,1.035446,-0.102158,-0.420366,-1.161992,0.289189,0.058310,0.055319,0.235998,1.493737,-2.176716,0.451350,328.063141,329.157684,26.000000,7.816467,44.549973,9.455334
461772276.737054,-0.230011,1.081787,-0.091629,-0.423884,-1.110001,0.368907,-0.007157,0.191566,0.370121,1.469370,0.104730,-0.015660,326.071472,327.166016,26.000000,8.677849,45.202286,6.636868
461772276.770419,0.100540,1.125671,0.375870,-0.353917,-1.068619,0.392152,0.008845,0.175160,0.704494,1.002913,2.355979,-0.311283,323.738678,324.833221,26.000000,9.022400,44.927628,5.376842
461772276.803774,0.261658,1.153625,0.103546,-0.307387,-1.046411,0.376415,0.388536,0.283386,0.767359,0.261553,0.321482,-0.425994,319.743408,320.837952,26.000000,8.540024,45.270950,4.315769
461772276.837107,0.017929,1.306580,0.023468,-0.332757,-1.044304,0.370031,0.389515,0.328082,0.454172,-0.021631,-1.841557,-0.105258,322.104004,323.198547,26.000000,8.195473,46.094910,3.917866
461772276.870600,0.307281,1.665726,0.185776,-0.389286,-1.064349,0.360988,0.111025,0.498955,0.487965,-0.962944,1.005347,-0.264042,324.196014,325.290558,26.000000,8.367746,46.609909,4.149975
461772276.903737,0.529694,1.555023,-0.134781,-0.413329,-1.128428,0.271042,0.620536,0.693626,0.415393,-3.367746,1.733106,-0.233551,322.088684,323.183228,26.000000,8.402205,46.644226,6.902126
461772276.937109,-0.770523,1.666504,-0.621841,-0.469251,-1.256146,0.161498,0.250947,0.571678,-0.167801,-4.105469,1.307510,0.772796,323.772461,324.867004,26.000000,8.746758,45.133591,12.738003
461772276.970494,-0.516876,1.133286,-0.089142,-0.826886,-1.322767,-0.187626,-0.722481,0.596154,-0.032581,-3.319932,-2.148645,-2.884672,326.065216,327.159760,26.000000,8.505569,44.275284,16.020695
461772277.002821,-0.343552,0.989029,-0.126831,-1.367544,-1.275630,-0.685089,-0.202013,0.117053,-0.023144,-2.511341,-1.449743,-3.002579,327.412720,328.507263,26.000000,7.713099,42.386978,21.823421
461772277.037117,-0.090134,1.560486,0.320465,-1.589648,-1.224346,-0.899565,0.222298,0.225691,-0.080833,-1.793578,0.071901,-0.190326,330.263031,331.357574,26.000000,5.611331,40.361343,25.702953
461772277.070501,-0.079071,1.093826,-0.298279,-1.802885,-1.259558,-1.148926,0.029121,0.579264,-0.144153,-2.597556,-0.112934,1.698858,335.584290,336.678833,26.000000,5.370148,37.923721,29.914074
461772277.103814,-0.068512,0.383972,-0.421097,-2.038117,-1.288220,-1.394870,0.169863,0.133486,-0.423891,-1.701693,0.382239,1.427484,336.952454,338.046997,26.000000,5.955887,36.104095,31.273571
461772277.137115,-0.081985,0.423340,-0.154449,-2.282379,-1.272530,-1.704202,0.154040,-0.571875,-0.613000,-3.116409,2.319168,0.769056,336.486450,337.580994,26.000000,6.782810,32.327499,35.451519
461772277.170589,-0.302994,0.604126,-0.187576,-2.419043,-1.209971,-1.947698,0.063014,-0.480711,-0.433727,-2.614934,3.494027,0.134087,338.215393,339.309937,26.000000,4.302032,27.932907,39.098949
461772277.203748,-0.151505,0.383652,-0.216553,-2.412002,-1.164141,-2.065414,0.022762,-0.378563,-0.511956,-0.660384,1.824953,0.175417,342.724365,343.818909,26.000000,2.475904,26.593918,40.723705
461772277.237147,-0.199173,0.245651,-0.102798,-2.392000,-1.167531,-2.098745,0.105234,-0.618378,-0.455439,0.156159,1.284005,0.450574,350.226715,351.321259,26.000000,-1.451993,24.808609,42.381626
461772277.270464,-0.386703,0.487732,0.227173,-2.360482,-1.194174,-2.078462,-0.082090,-0.672466,-0.188862,1.239439,-0.285090,0.324425,358.311249,359.405792,26.000000,-3.209214,25.460953,42.215839
461772277.303746,-0.450287,1.353409,0.899734,-2.260631,-1.238551,-1.958217,-0.129347,-0.306961,0.106664,2.214568,-0.205550,-0.032484,0.985748,2.080299,26.000000,-3.794953,26.113266,41.519512
461772277.337153,-0.131622,1.949310,1.366653,-2.087081,-1.261701,-1.780058,-0.050959,0.727109,1.042124,1.130841,0.517602,-0.648226,1.514391,2.608942,26.000000,-4.277326,28.791229,39.795284
461772277.370475,-0.167648,1.136810,0.567368,-2.047228,-1.254932,-1.786212,0.249433,0.911593,0.908090,-0.656188,2.104523,0.134843,358.442291,359.536835,26.000000,-6.172361,30.748184,38.767368
461772277.403734,-0.485367,0.550034,0.391617,-2.076889,-1.252162,-1.878033,0.018186,-0.149219,0.263742,-0.751668,1.373266,0.536690,358.772766,359.867310,26.000000,-7.171562,30.988525,38.866848
461772277.437118,-0.722351,1.949081,-0.717010,-2.079843,-1.273764,-1.917310,-0.229793,-0.406176,0.248979,0.766374,0.461781,0.735499,3.817094,4.911645,26.000000,-9.032143,31.194519,38.999485
461772277.470721,-0.384201,0.434708,-0.376373,-2.067649,-1.287935,-1.855710,-0.595112,1.675329,0.634616,-0.501258,-3.924685,0.077763,7.195875,8.290425,26.000000,-8.032942,31.091522,39.430546
461772277.503751,-0.117813,0.160477,-0.246277,-2.108060,-1.294855,-1.864872,-0.003832,-0.865322,-0.558795,0.277905,0.456805,0.094960,3.083677,4.178228,26.000000,-7.102650,32.361847,39.927921
461772277.537109,-0.167068,0.647827,-0.350113,-2.038234,-1.292817,-1.796486,0.127162,-0.801135,-0.369927,0.607948,-0.046505,-0.779584,2.598381,3.692932,26.000000,-6.654731,32.396164,39.828449
461772277.570354,-0.013336,1.281601,-0.640167,-1.913781,-1.261784,-1.642045,0.060391,-0.081144,-0.511820,1.235069,-1.402460,-1.804405,1.342556,2.437107,26.000000,-7.378288,33.666473,38.601589
461772277.603303,0.091904,1.604919,-0.325836,-1.739587,-1.231203,-1.383807,0.411271,0.553402,-0.809437,3.045460,-2.424431,-1.145969,2.270253,3.364804,26.000000,-6.930369,35.966782,36.379971
461772277.637048,0.020340,0.967575,-0.107635,-1.469087,-1.249680,-1.048604,0.405898,0.656036,-0.293789,3.298816,-0.198823,1.644739,1.581297,2.675848,26.000000,-6.103443,37.683411,34.921001
461772277.670453,-0.184280,0.925079,0.533218,-1.120861,-1.299451,-0.697678,0.195225,-0.118456,0.045003,2.188606,0.420179,2.382845,4.829123,5.923674,26.000000,-2.349487,41.126129,30.437668
461772277.703759,-0.037857,0.991104,0.077820,-0.775830,-1.273734,-0.354004,0.020709,-0.031121,0.742169,2.949648,0.530785,-0.098860,354.290985,355.385529,26.000000,-1.350304,44.455643,26.359756
461772277.737337,0.125687,0.847061,-0.107193,-0.647160,-1.246163,-0.254073,0.219119,-0.021697,0.210109,0.237349,0.990641,0.283319,351.901917,352.996460,26.000000,-1.074667,45.416733,24.900986
461772277.770447,0.115967,0.827515,-0.207794,-0.574332,-1.247525,-0.191071,0.320485,-0.150167,0.085656,0.440012,-0.210398,0.753127,351.934357,353.028900,26.000000,-1.109125,46.549438,23.143837
461772277.803775,-0.258621,1.013733,-0.308914,-0.496529,-1.239110,-0.062723,0.119848,-0.044356,-0.046068,1.308404,-2.160641,0.995147,352.281982,353.376526,26.000000,1.228828,46.823410,22.317131
461772277.837379,-0.339142,1.000580,0.112457,-0.475405,-1.186970,0.075790,-0.135734,0.113075,0.248549,2.427398,-3.629244,0.424178,351.977081,353.071625,26.000000,2.434742,47.406906,21.090439
461772277.870387,-0.337341,0.989975,-0.212936,-0.432983,-1.130379,0.153470,-0.162602,-0.066622,0.571057,1.398993,1.396510,-0.387738,346.690704,347.785248,26.000000,4.708754,48.505280,18.172890
461772277.903822,-0.002792,1.230957,-0.126480,-0.409275,-1.101012,0.114162,-0.081831,0.341534,0.325630,0.515808,1.711382,-0.990560,341.661926,342.756470,26.000000,4.054113,50.049850,15.620026
461772277.937120,0.109543,1.156265,0.212494,-0.350253,-1.058333,0.098573,0.285619,0.314816,0.508026,1.288603,2.071489,-0.479489,340.193665,341.288208,26.000000,2.917109,50.633347,15.056412
461772277.970467,0.279999,1.193817,-0.029770,-0.322269,-1.028592,0.091997,0.272978,0.299692,0.701954,0.437152,-0.075571,-0.399941,344.971222,346.065765,26.000000,0.298550,51.045242,13.730255
461772278.003822,0.032608,1.204117,0.047562,-0.364539,-1.024931,0.088533,0.491562,0.348782,0.409863,-0.043989,-1.495068,0.175401,349.167175,350.261719,26.000000,-0.140528,50.857407,13.129795
461772278.037093,0.441544,1.697174,0.265503,-0.355953,-1.023737,0.097465,0.038696,0.352546,0.630637,-0.034120,1.439308,-0.031887,349.348694,350.443237,26.000000,0.066201,50.994705,13.196102
461772278.070461,0.676514,1.612671,-0.073044,-0.390970,-1.091263,-0.023007,0.852333,0.725461,0.353507,-3.298307,0.103448,-0.379031,347.744110,348.838654,26.000000,-0.898537,50.720123,15.119038
461772278.103965,-0.349335,1.183105,-0.427505,-0.484013,-1.206903,-0.118392,0.106355,0.317679,-0.113190,-3.518769,0.183007,0.521313,349.549011,350.643555,26.000000,-1.518727,48.180313,19.760632
461772278.137360,-0.518875,1.375580,-0.370728,-0.699017,-1.288565,-0.340839,-0.658366,0.654767,-0.077114,-3.382940,-0.670090,-1.639581,353.035858,354.130402,26.000000,-1.759912,44.782455,26.026783
461772278.170482,-0.483307,1.289886,-0.132553,-1.197115,-1.290828,-0.789937,-0.178123,0.351878,-0.070409,-2.900533,-2.483706,-1.869148,353.060852,354.155396,26.000000,-1.691004,42.654480,29.673733
461772278.203761,-0.219849,1.252243,-0.136002,-1.515997,-1.281781,-1.083637,0.043538,0.144472,-0.119781,-2.079741,-0.171210,0.224734,355.801239,356.895782,26.000000,-1.897735,38.261292,35.111027
461772278.237160,0.386475,1.526718,-0.159210,-1.700447,-1.312177,-1.298717,-0.012011,0.393531,-0.144530,-1.533411,1.100423,1.164202,357.208679,358.303223,26.000000,-1.863281,33.765106,38.923763
461772278.270623,0.163788,1.218903,-0.316101,-1.945767,-1.357710,-1.614422,0.537039,0.492008,-0.408004,-2.079139,1.206107,2.532732,357.512970,358.607513,26.000000,-1.622096,32.151978,40.084164
461772278.303821,-0.083511,0.299026,-0.390747,-2.344670,-1.366031,-2.056050,0.262219,-0.231245,-0.285211,-2.841835,2.729805,1.131867,357.974243,359.068787,26.000000,-1.243091,28.754135,42.438114
461772278.337214,-0.199600,0.469772,-0.166824,-2.560479,-1.300592,-2.384418,0.010210,-0.577593,-0.378218,-2.612818,3.475782,0.390506,358.074646,359.169189,26.000000,-3.896127,24.532532,44.593128
461772278.370701,-0.162903,0.582275,-0.250427,-2.581585,-1.252477,-2.520834,-0.030942,-0.462534,-0.407361,-1.506935,2.735553,0.146468,359.193665,0.288216,26.000000,-5.722243,22.095673,45.223064
461772278.403799,-0.188950,0.348267,-0.281372,-2.572150,-1.227872,-2.601116,0.030701,-0.394717,-0.608181,-0.712296,2.485530,0.416119,10.120088,11.214639,26.000000,-10.993862,18.423218,46.449772
461772278.437111,-0.335342,0.349594,-0.017303,-2.558639,-1.229777,-2.644872,-0.042009,-0.654099,-0.501592,0.158079,0.909366,0.392115,20.102943,21.197495,26.000000,-14.370455,16.707138,46.051922
461772278.470436,-0.391983,0.543976,0.191574,-2.557331,-1.256567,-2.638416,-0.187547,-0.521286,-0.174378,1.174823,-0.792371,0.416843,24.540653,25.635204,26.000000,-14.990644,16.775787,45.587765
461772278.503773,-0.474884,1.097137,0.678284,-2.495397,-1.308538,-2.545123,-0.274472,-0.178530,0.219432,2.102112,-0.533483,0.051682,28.258869,29.353420,26.000000,-13.145629,17.740646,44.943325
461772278.537103,0.250443,1.885498,1.209839,-2.295723,-1.341275,-2.344148,-0.231583,0.330637,0.666356,1.249042,0.601645,-0.666446,26.261093,27.355644,26.000000,-12.869992,20.623581,43.882465
461772278.570535,-0.138245,0.995850,0.659775,-2.193093,-1.343326,-2.277963,0.433682,0.911258,1.078386,0.007177,1.245555,0.253410,24.129866,25.224417,26.000000,-13.696906,21.653183,43.550945
461772278.603771,-0.188187,0.349808,0.348816,-2.245128,-1.348738,-2.358802,0.033788,0.020403,0.522264,-0.607600,0.613159,0.574661,25.390253,26.484804,26.000000,-15.144009,22.682816,42.887905
461772278.636946,-0.440369,2.927780,0.029633,-2.301502,-1.366019,-2.453416,-0.265542,-0.363673,0.044049,0.538022,1.202248,0.852054,28.150637,29.245188,26.000000,-16.212103,22.717133,42.324329
461772278.670390,-0.386261,0.052292,-0.283188,-2.175745,-1.386794,-2.307445,-0.289873,1.944661,-0.074424,0.189323,-2.546043,-0.164927,28.732338,29.826889,26.000000,-14.902822,22.785782,42.059109
461772278.703915,-0.316757,-0.032883,-0.172653,-2.289983,-1.411005,-2.365699,-0.247084,-1.021227,-0.309455,0.493851,0.123139,0.300036,29.200369,30.294920,26.000000,-14.179273,23.231949,41.893353
461772278.737106,-0.392578,0.826218,-0.326492,-2.137008,-1.412950,-2.204676,-0.212707,-0.538822,-0.395344,0.773808,-0.975368,-1.061852,22.968843,24.063395,26.000000,-12.249806,24.055649,41.760738
461772278.770448,-0.126694,1.144165,-0.694870,-1.899747,-1.373562,-1.887816,-0.034382,0.040872,-0.450374,1.262994,-3.015278,-2.046751,22.363680,23.458231,26.000000,-11.216164,25.222534,41.495525
461772278.803840,-0.032303,1.390717,-0.594330,-1.568021,-1.340018,-1.474306,0.184377,0.299461,-0.692740,3.703445,-1.262312,-0.837734,22.480768,23.575319,26.000000,-10.251430,26.252151,40.898785
461772278.837283,0.088181,0.924957,-0.204483,-1.058947,-1.308600,-0.962732,0.291093,0.507459,-0.157301,3.070038,1.257039,0.625638,20.018276,21.112827,26.000000,-9.493426,29.821472,38.710758
461772278.870468,0.218781,1.138077,0.456924,-0.811866,-1.309521,-0.735714,0.264406,-0.129376,-0.015938,0.852285,0.339673,1.369368,16.490479,17.585030,26.000000,-9.803517,33.974274,34.633083
461772278.903757,0.105759,1.023438,0.799957,-0.560724,-1.247692,-0.476971,0.303511,0.173908,1.095048,3.103852,-0.025458,-0.249505,15.975506,17.070057,26.000000,-10.251427,35.793259,32.610828
461772278.937098,0.249527,0.792145,-0.162140,-0.497949,-1.232597,-0.429864,0.132363,0.042624,0.353021,-0.144762,1.167738,0.261571,13.267270,14.361821,26.000000,-10.216972,38.024109,29.594021
461772278.970504,-0.030838,0.979034,-0.213547,-0.423036,-1.238378,-0.376611,0.385616,-0.133458,0.117983,0.229553,0.324930,0.851124,12.898567,13.993118,26.000000,-9.424516,39.225327,28.367405
461772279.003796,-0.239700,1.083359,-0.200562,-0.346533,-1.235822,-0.268410,0.080816,0.034616,0.095656,0.708435,-1.659946,0.944104,12.934301,14.028852,26.000000,-8.632058,39.671494,28.069042
461772279.037141,-0.297409,0.905731,0.085159,-0.330946,-1.199292,-0.172612,-0.252434,0.097362,0.218318,1.988158,-2.548844,0.363707,12.634640,13.729191,26.000000,-6.013496,40.563812,27.074490
461772279.070478,-0.267838,0.995422,-0.127899,-0.320092,-1.135057,-0.105509,-0.184085,0.040829,0.339698,0.444963,0.277706,-0.424130,7.436291,8.530842,26.000000,-3.498300,41.902344,25.184834
461772279.103726,0.021973,1.084579,-0.118607,-0.309601,-1.106450,-0.128088,0.158420,0.190465,0.307939,1.231102,2.029649,-0.547821,4.306733,5.401284,26.000000,-3.084841,42.520111,24.322880
461772279.137048,-0.041153,1.109467,0.438126,-0.219192,-1.060547,-0.118496,0.152050,0.214032,0.803476,1.266469,2.487334,-0.083619,2.493417,3.587968,26.000000,-4.394125,43.755676,22.400089
461772279.170464,0.233780,1.138611,-0.073212,-0.193225,-1.047630,-0.118818,0.084206,0.261856,0.878816,0.508833,0.960809,-0.232803,5.735271,6.829822,26.000000,-5.875681,44.201828,20.841946
461772279.204005,0.243652,1.437347,-0.085907,-0.287407,-1.061540,-0.141961,0.363662,0.364045,0.371095,-0.768005,-1.521255,-0.050684,8.896936,9.991488,26.000000,-5.910135,44.373444,20.742504
461772279.237150,0.753082,1.800583,-0.079575,-0.310170,-1.107829,-0.179230,0.823081,1.022231,0.398378,-2.293571,1.594274,0.178679,8.095491,9.190042,26.000000,-5.393312,43.515442,21.571285
461772279.270505,-0.328995,1.504105,-0.526535,-0.248230,-1.205571,-0.194907,0.563183,0.665261,0.047049,-3.094364,2.621516,0.869940,6.706477,7.801028,26.000000,-5.634495,42.039642,24.654408
461772279.304001,-1.046036,1.329636,0.088425,-0.265984,-1.297023,-0.265795,-0.651725,0.561763,-0.151510,-2.920061,0.239030,-1.304701,7.189210,8.283761,26.000000,-5.855683,37.986465,28.744511
461772279.337140,-0.556931,0.955551,-0.397934,-0.833068,-1.337686,-0.863737,-0.439500,0.086999,-0.243566,-3.286259,0.679413,-3.886151,8.956247,10.050798,26.000000,-7.096045,35.721313,31.131435
461772279.370552,-0.275299,1.138947,-0.370071,-1.315362,-1.278178,-1.334256,0.088671,-0.260730,-0.181144,-1.883730,-1.690580,-2.313358,13.599669,14.694221,26.000000,-8.818766,30.161423,35.640057
461772279.403044,0.314026,1.480957,-0.088669,-1.521483,-1.302987,-1.506413,-0.058593,0.374209,-0.537829,-1.068801,-1.069258,1.338228,24.330214,25.424765,26.000000,-8.956583,25.974350,38.358486
461772279.437512,-0.087662,1.185394,-0.160080,-1.698815,-1.361427,-1.679427,0.520168,0.502795,-0.115204,-1.615597,1.088408,2.713144,24.979895,26.074446,26.000000,-8.095221,24.429932,39.319889
461772279.470448,0.016815,0.715652,-0.104050,-2.191289,-1.402107,-2.217225,0.132490,-0.098354,-0.363761,-2.981821,1.708647,1.447212,20.973051,22.067602,26.000000,-6.682587,21.718597,40.878017
461772279.503715,-0.303772,0.631882,-0.076736,-2.534200,-1.343194,-2.648596,0.062115,-0.334134,-0.272030,-2.933205,2.840096,0.354143,19.507168,20.601719,26.000000,-7.922946,17.943375,42.137783
461772279.538006,-0.271835,0.628784,-0.084930,-2.611369,-1.288026,-2.827205,-0.162665,-0.328404,-0.317443,-1.654907,2.632240,0.207380,19.757166,20.851717,26.000000,-9.611217,15.849838,42.237240
461772279.570454,-0.266418,0.476395,-0.214828,-2.621626,-1.258680,-2.915426,-0.106738,-0.339961,-0.413294,-0.894121,2.155368,0.259428,28.213852,29.308403,26.000000,-13.091118,12.246185,41.342144
461772279.603777,-0.227448,0.392624,-0.164505,-2.609878,-1.251490,-2.961762,-0.089823,-0.448431,-0.521393,-0.070588,1.486661,0.293126,37.579689,38.674240,26.000000,-16.364294,10.701782,40.447056
461772279.636999,-0.320435,0.368317,-0.039307,-2.570727,-1.264223,-2.961147,-0.064370,-0.560750,-0.418444,0.603481,0.977036,0.119131,43.543411,44.637962,26.000000,-18.741648,10.461533,39.551968
461772279.670650,-0.403549,0.545517,0.138580,-2.481986,-1.289881,-2.889730,-0.206345,-0.591509,-0.218424,1.340756,0.412251,-0.214875,45.292984,46.387535,26.000000,-19.534098,10.976334,39.253597
461772279.703728,-0.376526,1.321045,0.492981,-2.289724,-1.321954,-2.700527,-0.218219,-0.423681,-0.023616,2.055489,0.359097,-0.590752,46.901413,47.995964,26.000000,-20.429916,12.417801,37.861233
461772279.737125,-0.286697,1.637421,0.851013,-1.834834,-1.331631,-2.263732,-0.085298,0.578879,0.609349,1.231019,0.561374,-0.863814,47.096199,48.190750,26.000000,-21.187916,14.888855,36.137333
461772279.770439,-0.160461,1.175247,0.765121,-1.747848,-1.321062,-2.221143,-0.094059,0.548173,1.020420,-0.243534,2.030994,0.047255,47.578831,48.673382,26.000000,-21.945915,15.506607,35.209087
461772279.803781,-0.604660,2.014099,-0.159576,-1.701744,-1.330721,-2.218363,-0.059273,0.107598,0.282612,0.340493,0.566602,0.251756,49.800243,50.894794,26.000000,-23.358545,16.158691,33.385746
461772279.837127,-1.025116,2.950516,-0.370285,-1.660244,-1.334577,-2.172111,-0.222825,0.458724,0.004333,0.885422,-0.703313,0.081913,54.203354,55.297905,26.000000,-23.186272,16.604858,32.755863
461772279.870451,-0.186737,0.487885,-0.119995,-1.547851,-1.336394,-1.985981,-0.359871,0.661349,-0.256497,1.535322,-2.395460,0.434369,54.699879,55.794430,26.000000,-22.428270,17.222626,32.556957
461772279.903842,0.092819,0.220688,-0.229462,-1.401366,-1.329922,-1.792902,0.172056,-0.526580,-0.042219,0.350406,-0.448786,-0.495686,52.857368,53.951920,26.000000,-20.946732,18.355209,32.590115
461772279.937037,0.029556,0.576614,-0.318283,-1.387200,-1.318574,-1.774173,0.339387,-0.629707,-0.211229,0.219546,0.427103,-0.221147,49.336918,50.431469,26.000000,-20.292095,18.526810,32.358044
461772279.970317,-0.095810,1.095779,-0.453094,-1.286890,-1.312136,-1.730766,0.262545,0.048083,-0.293633,0.474781,2.698309,0.138823,46.413536,47.508087,26.000000,-21.773638,19.659378,31.462955
