Timestamp,Accel_X,Accel_Y,Accel_Z,Roll,Pitch,Yaw,UserAcc_X,UserAcc_Y,UserAcc_Z,RotRate_X,RotRate_Y,RotRate_Z,MagHeading,TrueHeading,HeadingAccuracy,MagX,MagY,MagZ
461771997.938880,0.008377,-0.134537,-0.958221,0.011262,-0.010276,-0.349859,0.001541,0.001443,-0.003229,-0.000022,-0.002372,0.003485,159.300430,160.394974,-1.000000,-41.739780,-47.332993,-103.241676
461771997.971932,0.035950,-0.123001,-1.031006,0.011262,-0.010276,-0.349859,0.001541,0.001443,-0.003229,-0.000022,-0.002372,0.003485,159.300430,160.394974,-1.000000,-41.739780,-47.332993,-103.241676
461771998.005549,0.018707,-0.111160,-0.992661,0.011262,-0.010276,-0.349859,0.001541,0.001443,-0.003229,-0.000022,-0.002372,0.003485,159.300430,160.394974,-1.000000,-41.739780,-47.332993,-103.241676
461771998.038874,0.010437,-0.115616,-0.981674,0.011262,-0.010276,-0.349859,0.001541,0.001443,-0.003229,-0.000022,-0.002372,0.003485,159.300430,160.394974,-1.000000,-41.739780,-47.332993,-103.241676
461771998.072100,0.036026,-0.112869,-0.988983,0.011262,-0.010276,-0.349859,0.001541,0.001443,-0.003229,-0.000022,-0.002372,0.003485,159.300430,160.394974,-1.000000,-41.739780,-47.332993,-103.241676
461771998.104965,0.031967,-0.109589,-1.011795,0.011262,-0.010276,-0.349859,0.001541,0.001443,-0.003229,-0.000022,-0.002372,0.003485,159.300430,160.394974,-1.000000,-41.739780,-47.332993,-103.241676
461771998.139025,0.040909,-0.120041,-0.981522,0.011262,-0.010276,-0.349859,0.001541,0.001443,-0.003229,-0.000022,-0.002372,0.003485,159.300430,160.394974,-1.000000,-41.739780,-47.332993,-103.241676
461771998.172072,0.029358,-0.110352,-1.034363,0.008567,0.139406,-0.000640,0.028855,0.033364,-0.043292,-0.014722,-0.033382,-0.005501,159.300430,160.394974,-1.000000,-41.739780,-47.332993,-103.241676
461771998.205776,0.031906,-0.114624,-1.024063,0.005342,0.140324,-0.000700,0.016867,0.016542,-0.008180,0.010375,-0.072664,0.013383,159.300430,160.394974,-1.000000,-41.739780,-47.332993,-103.241676
461771998.238999,0.015259,-0.120331,-0.996994,0.007954,0.137873,-0.000963,0.011622,0.021699,-0.029800,0.036383,-0.017613,0.000832,159.300430,160.394974,-1.000000,-41.739780,-47.332993,-103.241676
461771998.271988,0.020218,-0.116409,-0.997055,0.010972,0.133975,-0.001228,0.008139,0.014968,0.007199,-0.022356,0.013338,-0.003589,159.300430,160.394974,-1.000000,-41.739780,-47.332993,-103.241676
461771998.305743,0.032410,-0.121567,-0.996964,0.013010,0.132122,-0.002354,0.004575,0.007333,-0.004954,0.069729,0.034846,-0.037262,159.300430,160.394974,-1.000000,-41.739780,-47.332993,-103.241676
461771998.339013,0.030121,-0.119415,-1.004730,0.018150,0.130949,-0.003704,0.011516,0.012334,-0.011685,0.004773,0.076965,-0.028424,159.300430,160.394974,-1.000000,-41.739780,-47.332993,-103.241676
461771998.372034,0.032684,-0.116379,-1.011749,0.022310,0.129068,-0.004776,0.012270,0.011949,-0.016774,0.008586,0.036551,-0.019459,159.300430,160.394974,-1.000000,-41.739780,-47.332993,-103.241676
461771998.405875,0.045334,-0.115707,-0.997284,0.025382,0.127235,-0.005837,0.017093,0.010895,-0.025966,0.045913,0.033991,-0.021598,159.300430,160.394974,-1.000000,-41.739780,-47.332993,-103.241676
461771998.438967,0.042587,-0.116989,-0.977234,0.030124,0.129122,-0.006969,0.009606,0.011042,0.011748,0.035897,0.029352,-0.005785,159.300430,160.394974,-1.000000,-41.739780,-47.332993,-103.241676
461771998.472018,0.028900,-0.116760,-1.001678,0.030558,0.128915,-0.007274,0.005238,0.011142,0.002149,0.005935,0.001146,-0.028915,159.300430,160.394974,-1.000000,-41.739780,-47.332993,-103.241676
461771998.505673,0.040726,-0.117874,-0.985840,0.029783,0.127584,-0.009112,0.009969,0.010142,0.002098,0.012091,-0.008636,-0.023897,159.300430,160.394974,-1.000000,-41.739780,-47.332993,-103.241676
461771998.538953,0.034058,-0.126129,-0.998856,0.030554,0.127357,-0.009474,0.002870,0.001540,-0.000810,0.003375,0.001401,0.000331,159.300430,160.394974,-1.000000,-41.739780,-47.332993,-103.241676
461771998.572360,0.039215,-0.129150,-1.005112,0.030682,0.126836,-0.009378,0.008784,-0.002654,-0.013611,-0.016495,-0.025409,0.007761,159.300430,160.394974,-1.000000,-41.739780,-47.332993,-103.241676
461771998.605735,0.034760,-0.129959,-0.993362,0.030032,0.126794,-0.009373,0.005934,-0.004451,-0.016562,-0.002710,-0.066014,-0.002711,159.300430,160.394974,-1.000000,-41.739780,-47.332993,-103.241676
461771998.638944,0.027878,-0.123062,-0.994019,0.027982,0.127053,-0.010238,0.001742,-0.001508,-0.004787,-0.003989,-0.072254,-0.027061,159.300430,160.394974,-1.000000,-41.739780,-47.332993,-103.241676
461771998.672361,0.028290,-0.122131,-1.008377,0.026977,0.126915,-0.011040,0.001121,0.003512,-0.002422,-0.001645,-0.004732,-0.022837,159.300430,160.394974,-1.000000,-41.739780,-47.332993,-103.241676
461771998.705914,0.033142,-0.133118,-0.976929,0.027323,0.127626,-0.012008,0.004366,-0.007623,0.004604,0.035704,0.014754,-0.026409,159.300430,160.394974,-1.000000,-41.739780,-47.332993,-103.241676
461771998.739050,0.035645,-0.124374,-0.985794,0.027856,0.128552,-0.013147,-0.003072,-0.005926,0.011093,-0.009085,-0.021937,-0.044687,159.300430,160.394974,-1.000000,-41.739780,-47.332993,-103.241676
461771998.772010,0.037491,-0.123886,-1.003632,0.029765,0.126088,-0.014874,0.007966,0.001868,-0.012010,-0.059150,0.052103,-0.036063,159.300430,160.394974,-1.000000,-41.739780,-47.332993,-103.241676
461771998.805597,0.041763,-0.119843,-1.003738,0.031447,0.125401,-0.016474,0.014994,0.007977,-0.019467,0.033175,-0.000970,-0.037285,159.300430,160.394974,-1.000000,-41.739780,-47.332993,-103.241676
461771998.838992,0.038589,-0.124313,-0.982422,0.031691,0.126434,-0.016846,0.002533,-0.006379,0.004139,0.009588,0.014162,0.005078,159.300430,160.394974,-1.000000,-41.739780,-47.332993,-103.241676
461771998.872362,0.035309,-0.127014,-0.985794,0.032802,0.125729,-0.016752,0.005030,0.000169,0.002559,-0.026574,0.005748,-0.004882,159.300430,160.394974,-1.000000,-41.739780,-47.332993,-103.241676
461771998.904744,0.039658,-0.126144,-0.985672,0.033636,0.126038,-0.016857,0.004250,0.000124,0.002569,0.012086,0.027745,-0.003592,159.300430,160.394974,-1.000000,-41.739780,-47.332993,-103.241676
461771998.939033,0.036697,-0.128433,-0.985321,0.034936,0.126063,-0.017149,0.005189,-0.000751,0.008381,-0.032778,0.029277,0.000922,159.300430,160.394974,-1.000000,-41.739780,-47.332993,-103.241676
461771998.971946,0.039169,-0.121811,-0.992310,0.035584,0.124574,-0.016959,0.001458,-0.001419,0.006759,-0.041437,0.018339,0.005841,159.300430,160.394974,-1.000000,-41.739780,-47.332993,-103.241676
461771999.005682,0.036530,-0.124146,-1.007431,0.036579,0.123603,-0.016869,0.006341,0.004300,-0.017235,0.000867,0.018158,-0.003603,159.300430,160.394974,-1.000000,-41.739780,-47.332993,-103.241676
461771999.038989,0.045563,-0.126007,-1.000580,0.038120,0.123950,-0.017472,0.009469,0.002234,0.002288,-0.000559,0.066079,-0.010203,159.300430,160.394974,-1.000000,-41.739780,-47.332993,-103.241676
461771999.071910,0.045547,-0.124329,-0.971848,0.040330,0.123247,-0.017154,-0.000890,-0.005208,-0.013458,-0.015362,0.030728,0.008330,159.300430,160.394974,-1.000000,-41.739780,-47.332993,-103.241676
461771999.105610,0.044678,-0.119339,-0.983124,0.040813,0.124022,-0.016956,0.004190,0.004365,0.008369,-0.006552,0.022165,0.009697,159.300430,160.394974,-1.000000,-41.739780,-47.332993,-103.241676
461771999.138988,0.051529,-0.114044,-0.994568,0.041149,0.123397,-0.017347,0.006737,0.007560,0.002954,-0.009192,-0.006144,-0.025436,159.300430,160.394974,-1.000000,-41.739780,-47.332993,-103.241676
461771999.172362,0.038513,-0.119659,-0.989258,0.042276,0.123105,-0.017926,0.002734,0.001945,-0.006517,0.011566,0.028748,-0.002606,159.300430,160.394974,-1.000000,-41.739780,-47.332993,-103.241676
461771999.205655,0.040466,-0.120224,-0.990570,0.042751,0.123044,-0.017885,-0.003902,0.003075,0.002275,-0.005907,0.038665,0.002042,159.300430,160.394974,-1.000000,-41.739780,-47.332993,-103.241676
461771999.239047,0.041992,-0.113068,-0.998627,0.042997,0.121386,-0.017512,0.005413,0.003229,-0.003896,-0.023262,-0.022653,-0.006021,159.300430,160.394974,-1.000000,-41.739780,-47.332993,-103.241676
461771999.272363,0.035843,-0.117767,-0.981125,0.041759,0.120521,-0.018159,0.002379,0.005407,0.005141,-0.009592,-0.037545,-0.025289,159.300430,160.394974,-1.000000,-41.739780,-47.332993,-103.241676
461771999.305662,0.042038,-0.118027,-0.982788,0.041859,0.119894,-0.018804,-0.003002,0.004388,0.010384,-0.023441,0.026369,-0.017490,159.300430,160.394974,-1.000000,-41.739780,-47.332993,-103.241676
461771999.339195,0.045181,-0.114227,-1.001114,0.042314,0.119322,-0.018958,0.000922,0.000082,0.012890,-0.043345,0.019151,-0.007810,159.300430,160.394974,-1.000000,-41.739780,-47.332993,-103.241676
461771999.372347,0.041885,-0.121017,-0.991119,0.042938,0.117394,-0.019344,0.001636,-0.002672,-0.014237,0.007871,-0.001870,0.003770,159.300430,160.394974,-1.000000,-41.739780,-47.332993,-103.241676
461771999.405856,0.043610,-0.123138,-0.980774,0.043295,0.118147,-0.018518,-0.000561,-0.004656,0.009051,0.004149,0.033886,0.031447,159.300430,160.394974,-1.000000,-41.739780,-47.332993,-103.241676
461771999.438952,0.046738,-0.113861,-0.990204,0.044115,0.118409,-0.017275,0.000978,-0.005494,0.008176,-0.006961,0.009457,0.042586,159.300430,160.394974,-1.000000,-41.739780,-47.332993,-103.241676
461771999.471868,0.050003,-0.115402,-0.999023,0.044123,0.117679,-0.016553,0.003788,0.000357,-0.011057,-0.021994,-0.005350,0.013337,159.300430,160.394974,-1.000000,-41.739780,-47.332993,-103.241676
461771999.505641,0.050568,-0.119492,-1.005524,0.044395,0.117142,-0.015934,0.008108,-0.000816,-0.006474,-0.022005,0.011911,0.024143,159.300430,160.394974,-1.000000,-41.739780,-47.332993,-103.241676
461771999.539031,0.047501,-0.118378,-1.019577,0.044690,0.117276,-0.014624,-0.001888,-0.002103,-0.017992,0.020464,0.013058,0.043976,159.300430,160.394974,-1.000000,-41.739780,-47.332993,-103.241676
461771999.572397,0.063095,-0.108047,-1.013611,0.045271,0.118615,-0.013096,0.005553,0.001104,-0.022341,0.050391,0.019093,0.049024,159.300430,160.394974,-1.000000,-41.739780,-47.332993,-103.241676
461771999.605765,0.068680,-0.111237,-1.006805,0.047264,0.119206,-0.011678,0.020823,0.010281,-0.017925,0.037781,0.056011,0.047333,159.300430,160.394974,-1.000000,-41.739780,-47.332993,-103.241676
461771999.638951,0.072205,-0.116226,-0.974792,0.049711,0.121312,-0.011001,0.019018,0.010907,0.001038,0.121233,0.042019,0.015162,159.300430,160.394974,-1.000000,-41.739780,-47.332993,-103.241676
461771999.672339,0.081528,-0.118423,-0.982178,0.051232,0.125278,-0.010635,0.022648,0.006160,0.022966,0.102679,-0.004364,0.032554,159.300430,160.394974,-1.000000,-41.739780,-47.332993,-103.241676
461771999.705802,0.084244,-0.111542,-0.989136,0.053232,0.126739,-0.009222,0.028748,0.007976,0.008397,0.051516,0.048913,0.065783,159.300430,160.394974,-1.000000,-41.739780,-47.332993,-103.241676
461771999.739191,0.087326,-0.097504,-0.968369,0.057236,0.129655,-0.007536,0.030677,0.027181,0.009911,0.146211,0.065841,0.073641,341.993591,343.088135,-1.000000,26.448154,92.122940,40.858257
461771999.772311,0.087234,-0.109558,-0.986542,0.063330,0.131813,-0.004925,0.028143,0.027123,0.007557,0.029923,0.118051,0.068545,341.993591,343.088135,-1.000000,26.448154,92.122940,40.858257
461771999.805643,0.083313,-0.111206,-0.962891,0.068092,0.131843,-0.002758,0.013225,0.019645,0.006968,0.034917,0.110824,0.085725,341.988098,343.082642,-1.000000,26.482611,92.431984,40.957756
461771999.839031,0.068115,-0.126648,-0.965500,0.071921,0.132367,0.000813,0.008207,0.013100,0.026577,0.037584,0.098905,0.144418,341.982758,343.077301,-1.000000,26.172512,92.397644,40.990925
461771999.872423,0.054733,-0.135269,-0.983627,0.072664,0.134079,0.006192,-0.015705,0.000438,0.010413,0.032871,0.029124,0.178022,341.973022,343.067566,-1.000000,26.344791,92.019920,40.758762
461771999.905691,0.039719,-0.142212,-0.989410,0.069776,0.134501,0.012333,-0.024793,-0.002882,-0.002929,-0.044211,-0.067564,0.178406,341.960938,343.055481,-1.000000,26.138058,91.676544,41.156754
461771999.939003,0.040024,-0.140076,-1.008759,0.064958,0.132175,0.017955,-0.025315,-0.006774,-0.009440,-0.093952,-0.143485,0.167802,341.951080,343.045624,-1.000000,25.621231,91.504845,41.057255
461771999.972100,0.029114,-0.150970,-1.011353,0.060084,0.131932,0.024296,-0.018373,-0.015225,-0.030377,0.035702,-0.077660,0.198641,341.951080,343.045624,-1.000000,25.621231,91.504845,41.057255
461772000.005637,0.035950,-0.151550,-0.986938,0.058063,0.134355,0.029646,-0.027096,-0.019095,-0.010529,0.025414,-0.011670,0.145449,341.945618,343.040161,-1.000000,25.138859,91.504845,41.587914
461772000.038964,0.036499,-0.153671,-0.994888,0.056459,0.134055,0.033652,-0.014693,-0.016370,-0.004112,-0.060780,0.009308,0.103108,341.948364,343.042908,-1.000000,24.656485,91.710876,41.455246
461772000.072388,0.032379,-0.148087,-0.975571,0.056355,0.134731,0.036198,-0.016065,-0.015426,0.003326,0.028792,0.056400,0.048433,341.951263,343.045807,-1.000000,24.553116,91.401833,41.289417
461772000.105656,0.050507,-0.134552,-0.995163,0.057199,0.135303,0.037911,-0.013310,-0.002606,0.010770,-0.100982,0.089879,0.026386,341.931274,343.025818,-1.000000,24.863211,91.367493,41.256248
461772000.138986,0.061371,-0.131531,-1.010971,0.060767,0.132307,0.039855,0.001172,0.000390,-0.021540,-0.046080,0.143887,0.076290,341.842712,342.937256,-1.000000,24.932123,91.367500,41.057255
461772000.172344,0.047394,-0.132217,-0.994614,0.063860,0.132704,0.043076,-0.017494,-0.004877,-0.012537,0.015239,0.099563,0.106486,341.842712,342.937256,-1.000000,24.932123,91.367500,41.057255
461772000.204980,0.048416,-0.136444,-0.964615,0.064195,0.133057,0.044930,-0.012010,0.003407,0.001571,0.019322,0.050145,0.114702,341.944214,343.038757,-1.000000,24.587574,91.298813,41.521580
461772000.239030,0.058289,-0.131409,-0.956177,0.064833,0.133085,0.051475,-0.005926,0.001284,0.032898,-0.058021,0.109553,0.147684,341.946167,343.040710,-1.000000,24.243017,91.298813,41.388916
461772000.272330,0.048080,-0.140656,-0.965820,0.067977,0.131860,0.057398,-0.013167,-0.004370,0.022263,-0.059142,0.112194,0.183032,341.952820,343.047363,-1.000000,23.726192,91.401833,41.422081
461772000.305821,0.042267,-0.138336,-0.978409,0.067713,0.131648,0.063395,-0.028990,-0.011372,0.012009,-0.031514,0.016192,0.163467,341.960449,343.054993,-1.000000,23.553919,91.573524,41.786911
461772000.338996,0.057327,-0.135010,-0.976044,0.066419,0.131407,0.066083,-0.023531,-0.007307,0.010784,-0.070126,-0.010719,0.153684,341.966248,343.060791,-1.000000,23.381643,91.333153,41.687408
461772000.372356,0.047058,-0.130051,-1.013580,0.067492,0.124877,0.074154,-0.019628,-0.009343,-0.017218,-0.134094,0.141658,0.145584,342.021606,343.116150,-1.000000,23.588375,91.333153,41.886406
461772000.405756,0.036316,-0.136627,-0.986557,0.069561,0.122927,0.079407,-0.030559,-0.006777,-0.020978,-0.049169,0.095819,0.146697,342.021606,343.116150,-1.000000,23.588375,91.333153,41.886406
461772000.439135,0.042023,-0.135040,-0.975418,0.069665,0.121947,0.084320,-0.029571,-0.013121,0.009697,-0.095223,0.060337,0.139387,342.103638,343.198181,-1.000000,23.485006,91.367493,41.521580
461772000.472014,0.028717,-0.131790,-0.978287,0.068717,0.119688,0.089313,-0.033274,-0.008679,0.006647,-0.087643,0.030756,0.136091,342.099762,343.194305,-1.000000,23.485006,91.298820,41.654243
461772000.505693,0.027222,-0.120331,-0.979568,0.066533,0.118322,0.093993,-0.040857,-0.008739,0.015423,-0.078823,-0.001293,0.131609,342.079437,343.173981,-1.000000,24.277477,91.058456,41.422081
461772000.538998,0.018509,-0.114319,-1.008530,0.064180,0.115865,0.098676,-0.034669,-0.002894,0.004754,-0.091300,0.012208,0.135049,342.060181,343.154724,-1.000000,24.208569,91.127136,41.621078
461772000.572395,0.022339,-0.115601,-1.003494,0.062078,0.114110,0.102915,-0.043126,-0.000456,-0.016947,-0.042751,0.012986,0.108583,342.057983,343.152527,-1.000000,23.485006,91.504860,41.455250
461772000.604728,0.020538,-0.116852,-1.002869,0.057915,0.112405,0.105914,-0.038170,-0.004820,-0.007992,-0.072603,-0.081737,0.061732,342.057983,343.152527,-1.000000,23.485006,91.504860,41.455250
461772000.639030,0.024750,-0.132858,-0.988586,0.054456,0.111498,0.107990,-0.033980,-0.009125,-0.007255,-0.014148,-0.028154,0.047014,342.061768,343.156311,-1.000000,23.140453,91.367508,41.587914
461772000.672382,0.030502,-0.126846,-1.006912,0.052228,0.112291,0.108804,-0.027125,-0.020803,0.003761,0.000632,-0.010169,-0.007947,342.066956,343.161499,-1.000000,23.174911,91.127136,41.554745
461772000.705702,0.043350,-0.116806,-1.008636,0.051004,0.112957,0.108508,-0.020032,-0.011886,-0.019903,0.001900,-0.013924,-0.012774,342.072784,343.167328,-1.000000,23.209366,91.161476,41.455250
461772000.739161,0.065460,-0.104767,-1.018997,0.049747,0.113174,0.107430,0.001175,-0.001066,-0.016034,-0.001922,-0.031334,-0.052887,342.274475,343.369019,-1.000000,23.037088,90.715088,40.891426
461772000.771905,0.063797,-0.100800,-1.019424,0.050115,0.113112,0.104720,0.015686,0.008104,-0.026635,0.037707,0.022277,-0.094602,342.248840,343.343384,-1.000000,23.381638,90.852440,40.626099
461772000.805627,0.082932,-0.109009,-0.972687,0.054909,0.116977,0.098069,0.025190,0.009304,0.002976,0.148394,0.042308,-0.162281,342.247559,343.342102,-1.000000,23.795099,91.745224,40.758762
461772000.839027,0.094162,-0.104645,-0.987701,0.056876,0.120302,0.092238,0.031746,0.008791,0.017977,0.081055,0.020478,-0.174782,342.247559,343.342102,-1.000000,23.795099,91.745224,40.758762
461772000.872379,0.098953,-0.107574,-0.986862,0.058714,0.121842,0.086449,0.038526,0.016088,0.004716,0.071068,0.037757,-0.165270,342.018433,343.112976,-1.000000,24.001831,91.127144,41.024090
461772000.905684,0.103790,-0.097992,-0.973572,0.060906,0.124183,0.080835,0.040598,0.028650,0.015224,0.067349,0.034162,-0.157945,341.695679,342.790222,-1.000000,24.277475,90.921104,41.223087
461772000.939741,0.134811,-0.133286,-0.945190,0.065440,0.122336,0.076285,0.039053,0.031531,0.008819,-0.038636,0.060749,-0.113891,341.672729,342.767273,-1.000000,24.070745,90.715073,41.422081
461772000.972000,0.040817,-0.093002,-0.997025,0.069779,0.122274,0.079281,-0.032916,0.023398,0.005438,0.010624,0.211879,0.183887,341.672272,342.766815,-1.000000,24.001835,90.783752,41.422081
461772001.005668,0.091141,-0.104248,-0.964767,0.073058,0.121634,0.082684,0.049067,-0.001041,0.048786,-0.055542,0.165261,0.136267,341.497437,342.591980,-1.000000,24.346386,91.058456,41.886406
461772001.038338,0.128799,-0.096039,-1.026855,0.079428,0.115398,0.089187,0.028590,0.028075,-0.012728,-0.267554,0.213073,0.173209,341.497437,342.591980,-1.000000,24.346386,91.058456,41.886406
461772001.072582,0.146271,-0.070648,-1.006638,0.085727,0.109465,0.095667,0.049351,0.027368,-0.028328,-0.113946,0.165971,0.209010,341.235138,342.329681,-1.000000,24.622028,91.745224,42.085403
461772001.105600,0.139206,-0.109177,-1.036621,0.105606,0.102518,0.112304,0.034350,-0.006838,-0.047413,-0.194505,0.597569,0.291934,341.218658,342.313202,-1.000000,24.243021,91.710892,41.587914
461772001.139008,0.181396,-0.072678,-1.031555,0.113062,0.101287,0.115910,0.047608,0.007105,-0.062426,-0.043528,0.402345,0.175470,340.994080,342.088623,-1.000000,24.139654,90.989792,40.957756
461772001.172304,0.189926,-0.082932,-1.005905,0.113269,0.112594,0.118657,0.077615,0.029425,-0.018605,0.401714,-0.233146,0.119313,340.629456,341.723999,-1.000000,24.243021,90.886765,41.256252
461772001.205670,0.215408,-0.117676,-1.060486,0.098919,0.132755,0.121339,0.136608,0.067577,-0.086063,0.795654,-0.615086,0.165305,340.417816,341.512360,-1.000000,23.829556,90.955444,41.322586
461772001.238984,0.127579,-0.163467,-0.965240,0.075315,0.157307,0.122984,0.081600,-0.001818,0.043676,0.610931,-0.631744,0.107938,340.638641,341.733185,-1.000000,23.071539,90.886765,41.853241
461772001.271894,0.166550,-0.131287,-0.928131,0.059246,0.172844,0.125301,0.075659,0.038867,0.033756,0.401024,-0.407205,0.149237,340.638641,341.733185,-1.000000,23.071539,90.886765,41.853241
461772001.305649,0.260269,-0.217697,-0.958344,0.049173,0.182113,0.138330,0.126342,0.023409,0.040517,0.204861,-0.169453,0.591895,340.847595,341.942139,-1.000000,22.933720,90.749413,42.715561
461772001.338994,0.101501,-0.139526,-0.924667,0.060890,0.189024,0.158454,0.085907,0.038715,-0.038263,0.243541,0.863641,0.579457,341.280334,342.374878,-1.000000,22.244617,90.062660,43.577877
461772001.372347,0.091385,-0.159348,-0.859833,0.080143,0.200359,0.177018,0.007253,0.028549,0.080671,0.326852,0.426322,0.571031,341.335388,342.429932,-1.000000,22.106796,89.375900,43.577877
461772001.405837,0.111771,-0.179337,-0.856293,0.075282,0.208459,0.193821,0.023143,0.033292,0.125574,0.067613,-0.319243,0.465456,340.956909,342.051453,-1.000000,21.245417,88.860825,44.141701
461772001.438956,0.157211,-0.178223,-0.965973,0.056698,0.203746,0.211209,0.111969,0.052865,0.074788,-0.373009,-0.392197,0.673881,340.430481,341.525024,-1.000000,20.246212,88.483109,44.307529
461772001.472415,-0.181961,-0.204910,-0.956696,0.044502,0.192854,0.242391,0.045525,0.045940,0.009771,-0.346404,-0.150134,0.974240,340.430481,341.525024,-1.000000,20.246212,88.483109,44.307529
461772001.505699,-0.145035,-0.278961,-1.025970,0.035865,0.181353,0.262846,-0.279654,-0.028563,0.023618,-0.415132,-0.223213,0.121642,341.211273,342.305817,-1.000000,18.936914,87.933701,43.909534
461772001.538967,-0.042435,-0.113525,-0.965149,0.031029,0.172521,0.251321,-0.171234,-0.104243,-0.106353,-0.045050,-0.381507,-0.465666,341.833221,342.927765,-1.000000,18.213354,87.968033,42.881386
461772001.572361,0.145157,-0.192886,-1.029739,0.009028,0.175120,0.246934,0.079840,0.037569,0.037705,0.054642,-0.731521,0.019275,342.224670,343.319214,-1.000000,18.006626,88.036705,42.019073
461772001.605735,0.040390,-0.147156,-0.969116,-0.006274,0.180328,0.255159,0.151329,-0.013534,-0.045974,0.252040,-0.289515,0.443390,342.880249,343.974792,-1.000000,17.937714,88.174057,41.554749
461772001.639106,0.068466,-0.170349,-1.063507,-0.014790,0.184139,0.267105,0.026121,-0.012090,-0.074341,0.087776,-0.033987,0.355407,343.207092,344.301636,-1.000000,17.765436,88.071045,41.985909
461772001.672092,0.207352,-0.203857,-1.074646,-0.023152,0.192484,0.278107,0.083849,0.015486,-0.062859,0.348650,-0.259030,0.263261,343.207092,344.301636,-1.000000,17.765436,88.071045,41.985909
461772001.705698,0.058578,-0.157745,-0.909958,-0.029323,0.202295,0.288593,0.236073,-0.002939,-0.095459,0.371362,-0.065257,0.482329,343.530273,344.624817,-1.000000,17.386429,88.242737,42.549732
461772001.739280,-0.060181,-0.170746,-1.078171,-0.026161,0.206022,0.311666,0.077347,-0.025596,-0.026396,0.093420,0.212265,0.731206,344.006714,345.101257,-1.000000,16.456141,88.345749,42.516563
461772001.772318,0.018936,-0.233994,-0.973785,-0.030399,0.221297,0.339536,0.094747,0.025663,-0.026516,0.513218,-0.298405,0.601638,344.301270,345.395813,-1.000000,15.663669,88.242737,42.682392
461772001.805682,0.004257,-0.218033,-0.977173,-0.040616,0.237096,0.355105,0.043726,0.016848,-0.005950,0.559580,-0.255908,0.325836,344.127777,345.222321,-1.000000,14.664465,87.727661,42.980888
461772001.839027,-0.013062,-0.223724,-0.869019,-0.042889,0.256685,0.365656,0.086164,0.028168,0.075906,0.581881,0.319503,0.314173,344.318695,345.413239,-1.000000,13.940906,86.869202,44.009037
461772001.872330,0.088608,-0.250061,-0.927795,-0.030788,0.271024,0.376571,0.017559,0.026080,0.099637,0.345674,0.552598,0.328346,344.475220,345.569763,-1.000000,13.596354,86.800522,44.937687
461772001.905700,0.127167,-0.305237,-0.928711,-0.019925,0.281632,0.388568,0.122609,0.005341,-0.007605,0.417522,0.177776,0.292368,344.475220,345.569763,-1.000000,13.596354,86.800522,44.937687
461772001.939056,0.062210,-0.251587,-0.871429,-0.045023,0.264317,0.385779,0.195926,-0.029720,0.073210,-1.324027,-2.101965,0.017472,344.283325,345.377869,-1.000000,12.872793,86.628830,45.236179
461772001.972299,-0.127090,-0.159653,-1.062531,-0.098960,0.216624,0.387655,-0.067100,0.087081,-0.004163,-1.163526,-0.842159,0.046407,344.298370,345.392914,-1.000000,11.391220,87.281265,44.407024
461772002.005683,-0.028931,-0.330353,-0.864059,-0.100505,0.224271,0.382063,0.013869,0.014358,-0.026698,1.164545,0.392305,-0.295810,345.684357,346.778900,-1.000000,10.943301,86.766190,43.179882
461772002.039003,0.035172,-0.372025,-0.916107,-0.062373,0.272927,0.381431,0.031094,-0.060801,0.097054,1.385996,1.645030,0.059410,346.561340,347.655884,-1.000000,11.494586,86.354134,43.378883
461772002.072482,0.026642,-0.279541,-1.006668,-0.014918,0.296721,0.392539,0.060271,-0.047305,-0.029844,0.254325,1.304764,0.410400,345.254944,346.349487,-1.000000,11.701315,86.079430,44.771858
461772002.105639,-0.128403,-0.204849,-0.944214,0.002397,0.289616,0.405671,-0.018838,0.028473,-0.016731,-0.423165,0.256850,0.325382,345.254944,346.349487,-1.000000,11.701315,86.079430,44.771858
461772002.139000,-0.067154,-0.275131,-0.897461,0.015846,0.277069,0.413929,-0.082395,-0.001593,0.064280,0.011782,0.612059,0.110442,343.598724,344.693268,-1.000000,11.529040,86.182449,45.004021
461772002.172351,0.037140,-0.305023,-0.900818,0.041070,0.282207,0.423163,0.000361,-0.038067,0.050759,0.141760,0.938432,0.429051,342.158112,343.252655,-1.000000,11.287857,86.766190,45.302513
461772002.205659,-0.012283,-0.207275,-0.940750,0.068645,0.280769,0.443547,-0.061389,0.001856,0.050987,-0.234315,1.060425,0.669064,341.927124,343.021667,-1.000000,11.218946,87.109573,45.501511
461772002.238991,0.022171,-0.141632,-0.977310,0.080545,0.274928,0.454522,-0.089720,0.064202,0.018574,-0.500929,0.834154,0.588759,340.949768,342.044312,-1.000000,10.874393,86.834862,45.766838
461772002.272496,0.000534,-0.178650,-1.010849,0.098424,0.249230,0.471836,-0.113036,0.077499,-0.047093,-0.320503,0.333670,0.107113,339.635345,340.729889,-1.000000,10.426474,86.937881,44.738689
461772002.305646,0.001358,-0.242340,-0.903976,0.106707,0.247507,0.471967,-0.093844,0.038369,0.005195,0.078337,0.174990,-0.078582,339.037476,340.132019,-1.000000,10.392019,86.697510,44.506527
461772002.339004,-0.002151,-0.243118,-0.920105,0.115796,0.250994,0.468999,-0.116800,0.003570,0.053411,0.126546,0.388435,-0.055939,339.037476,340.132019,-1.000000,10.392019,86.697510,44.506527
461772002.371875,0.082169,-0.259613,-0.980804,0.120379,0.253480,0.468493,-0.101480,0.007580,0.031841,0.168567,0.530421,-0.076540,338.870667,339.965210,-1.000000,10.357562,86.525818,44.606026
461772002.405826,0.091583,-0.259644,-1.071304,0.144965,0.259483,0.459271,-0.050053,-0.008404,-0.040395,0.032412,0.384011,-0.250579,338.751068,339.845612,-1.000000,10.598749,86.148094,44.440197
461772002.438979,0.127304,-0.212570,-1.195969,0.157290,0.256606,0.449319,-0.039178,0.042618,-0.259741,-0.129345,0.036686,-0.387438,338.190491,339.285034,-1.000000,10.771027,86.319786,44.274368
461772002.472111,0.085449,-0.226608,-1.096069,0.147958,0.246722,0.438178,0.000387,-0.032705,-0.147627,-0.230183,-0.450835,-0.302828,337.648010,338.742554,-1.000000,10.908847,86.731850,44.672359
461772002.505700,0.055054,-0.203308,-1.037994,0.136376,0.242495,0.430422,-0.088107,0.035810,-0.106585,0.138392,-0.188585,-0.281875,337.334473,338.429016,-1.000000,11.391217,87.006554,44.672356
461772002.538989,0.073090,-0.222900,-1.011078,0.136957,0.250960,0.418109,-0.064686,0.032208,-0.065283,0.434392,0.040324,-0.359969,337.334473,338.429016,-1.000000,11.391217,87.006554,44.672356
461772002.572368,0.063293,-0.234253,-0.939133,0.137028,0.261690,0.405715,-0.052008,0.031907,-0.005259,0.304328,-0.220039,-0.277846,337.892303,338.986847,-1.000000,12.011411,86.663170,44.274361
461772002.605690,0.030731,-0.205017,-0.983368,0.128479,0.266030,0.398499,-0.063621,0.024652,0.005836,0.155022,-0.216349,-0.165552,337.830780,338.925323,-1.000000,12.390421,86.422806,44.506527
461772002.639171,0.030457,-0.187744,-0.970825,0.119589,0.269372,0.393009,-0.086377,0.073987,-0.019860,0.228368,-0.209710,-0.221165,337.916718,339.011261,-1.000000,12.528244,86.697510,44.771858
461772002.672326,0.102264,-0.213348,-0.997742,0.111531,0.270696,0.382953,-0.039025,0.063422,-0.021024,0.133254,-0.257854,-0.337303,338.176025,339.270569,-1.000000,12.700516,86.594498,45.601009
461772002.705704,0.102386,-0.188095,-1.021851,0.105995,0.269650,0.372351,0.007234,0.060019,-0.041164,0.084694,-0.242623,-0.284145,338.439819,339.534363,-1.000000,13.079523,86.491478,45.833172
461772002.738972,0.120926,-0.168411,-1.024460,0.102663,0.272571,0.362140,0.003687,0.081113,-0.063839,0.151730,-0.153500,-0.313801,338.439819,339.534363,-1.000000,13.079523,86.491478,45.833172
461772002.772078,0.135834,-0.194168,-1.019089,0.105100,0.277601,0.341214,0.027390,0.092348,-0.068554,0.390272,-0.032661,-0.459588,338.482056,339.576599,-1.000000,13.768628,86.834862,45.501511
461772002.805686,0.129532,-0.198242,-0.982315,0.106757,0.286636,0.324465,0.028103,0.077603,-0.041744,0.375636,-0.165028,-0.441303,338.830078,339.924622,-1.000000,14.216547,86.594498,45.932671
461772002.839022,0.142868,-0.228531,-0.956741,0.105169,0.296130,0.306872,0.042233,0.088451,-0.011534,0.323134,-0.217975,-0.516818,338.597870,339.692413,-1.000000,15.009018,86.354126,46.297497
461772002.872367,0.140457,-0.225433,-0.944946,0.104165,0.300959,0.288831,0.047975,0.064334,-0.001067,0.241064,-0.257748,-0.456053,338.716431,339.810974,-1.000000,15.043472,86.319786,46.595993
461772002.905531,0.087616,-0.181686,-0.969452,0.101849,0.302903,0.272814,0.015581,0.092039,-0.001964,0.154815,-0.230478,-0.481388,338.867950,339.962494,-1.000000,15.560300,86.834862,47.027149
461772002.938112,0.126144,-0.220993,-0.942917,0.099875,0.303178,0.252176,0.003350,0.111421,-0.015711,0.215270,-0.279774,-0.692723,338.867950,339.962494,-1.000000,15.560300,86.834862,47.027149
461772002.972515,0.101425,-0.235062,-0.929520,0.096868,0.308080,0.225878,0.025132,0.069846,0.015757,0.202810,-0.378258,-0.758938,338.737213,339.831757,-1.000000,16.387226,86.972214,47.292477
461772003.005719,0.101715,-0.243942,-0.910522,0.093191,0.312451,0.199576,-0.001240,0.081622,0.017400,0.271180,-0.333353,-0.794244,338.316650,339.411194,-1.000000,17.455338,86.388466,47.723637
461772003.039001,0.154053,-0.278824,-0.940491,0.092944,0.319111,0.170535,0.034953,0.049288,0.034222,0.212383,-0.275478,-0.807470,338.358795,339.453339,-1.000000,18.041077,86.354126,47.624138
461772003.072034,0.161438,-0.237686,-0.993896,0.091561,0.318057,0.146676,0.071783,0.052437,-0.019496,-0.053920,-0.269594,-0.626560,338.148132,339.242676,-1.000000,19.281467,86.972214,47.756798
461772003.105637,0.177856,-0.227585,-1.029236,0.092237,0.314529,0.125768,0.090360,0.094662,-0.094879,0.050587,-0.166943,-0.623127,337.761139,338.855682,-1.000000,20.556311,87.968033,47.856300
461772003.138994,0.159439,-0.263336,-0.899033,0.087719,0.318039,0.092225,0.086480,0.059637,0.022981,0.083734,-0.497280,-0.636665,337.666809,338.761353,-1.000000,21.486599,88.345749,48.022133
461772003.172273,0.141739,-0.289108,-0.874329,0.076407,0.316626,0.071555,0.069201,0.022254,0.073190,-0.006968,-0.564065,-0.581791,337.666809,338.761353,-1.000000,21.486599,88.345749,48.022133
461772003.205764,0.067871,-0.305664,-0.825653,0.066249,0.314668,0.053792,0.030113,0.005134,0.123206,-0.069421,-0.401311,-0.494828,338.008057,339.102600,-1.000000,21.521053,88.792152,47.458305
461772003.238987,0.111710,-0.311539,-0.929977,0.063988,0.312295,0.045648,-0.013321,0.008461,0.097495,-0.129515,-0.240241,-0.493170,338.483643,339.578186,-1.000000,22.106792,89.169861,47.159813
461772003.272349,0.118973,-0.341858,-0.892349,0.066266,0.311296,0.017588,0.055938,-0.035565,0.057499,0.090850,-0.159317,-0.550855,338.743134,339.837677,-1.000000,22.382437,88.826477,46.894485
461772003.305660,0.124878,-0.338577,-0.904343,0.068299,0.308610,0.000674,0.054088,-0.044944,0.076161,-0.243301,-0.056675,-0.462930,339.087097,340.181641,-1.000000,23.105997,88.998169,46.861320
461772003.338998,0.134750,-0.332397,-0.998962,0.074261,0.304107,-0.008061,0.069959,-0.027967,0.014504,-0.365718,0.012534,-0.485302,339.056854,340.151398,-1.000000,23.760647,89.925293,46.695488
461772003.372280,0.103622,-0.332611,-0.971283,0.076613,0.289395,-0.024813,0.061395,-0.047025,-0.043357,-0.411579,-0.212253,-0.560274,339.149414,340.243958,-1.000000,24.380840,90.680725,46.231163
461772003.405756,0.058884,-0.332169,-0.891083,0.067399,0.274476,-0.057468,-0.001274,-0.062789,0.063348,-0.151302,-0.354517,-0.776473,339.149414,340.243958,-1.000000,24.380840,90.680725,46.231163
461772003.438966,0.124985,-0.322250,-0.964722,0.069593,0.269393,-0.084948,-0.001203,-0.056256,0.028555,-0.031416,-0.016822,-0.864323,339.547638,340.642181,-1.000000,24.828756,91.470490,45.733673
461772003.472071,0.181046,-0.343414,-0.944443,0.079618,0.271764,-0.115304,0.072310,-0.058962,-0.001484,0.207684,0.073911,-0.906101,340.000092,341.094635,-1.000000,25.586773,91.607834,45.733673
461772003.505690,0.186554,-0.345276,-0.972778,0.089038,0.274826,-0.144274,0.098133,-0.076491,0.001827,0.080984,0.008796,-0.800277,340.218384,341.312927,-1.000000,26.172512,91.985558,45.368847
461772003.539033,0.199173,-0.338867,-0.967331,0.094200,0.274260,-0.168775,0.094665,-0.061715,-0.029588,0.069143,-0.113309,-0.697889,339.917145,341.011688,-1.000000,27.378445,92.844009,45.733673
461772003.572371,0.152878,-0.328873,-0.949661,0.094347,0.275768,-0.191057,0.111424,-0.072746,0.001943,0.088438,-0.218371,-0.594212,339.805542,340.900085,-1.000000,28.102005,93.496437,45.766838
461772003.605881,0.161179,-0.300217,-0.965134,0.092706,0.277172,-0.208250,0.063838,-0.055236,0.008042,0.152219,-0.139510,-0.483487,339.805542,340.900085,-1.000000,28.102005,93.496437,45.766838
461772003.638987,0.238647,-0.322281,-0.976974,0.097538,0.283806,-0.226638,0.121386,-0.025226,-0.021693,0.292536,0.038721,-0.540312,339.849518,340.944061,-1.000000,28.860020,94.045853,45.833168
461772003.672369,0.168228,-0.293945,-0.964249,0.102839,0.289780,-0.244444,0.135219,-0.037561,-0.017078,0.163640,-0.151556,-0.438143,340.010773,341.105316,-1.000000,28.928930,93.839821,46.032166
461772003.705662,0.150848,-0.293701,-0.945602,0.104451,0.294139,-0.259372,0.068445,-0.004030,-0.012412,0.215078,-0.205489,-0.394520,339.904144,340.998688,-1.000000,29.204571,94.183205,45.766838
461772003.739123,0.192062,-0.343323,-0.882965,0.106984,0.303543,-0.276141,0.053237,-0.002825,0.019781,0.380509,-0.107177,-0.463782,339.866180,340.960724,-1.000000,29.514669,94.492249,46.198002
461772003.771944,0.160492,-0.327911,-0.895020,0.111878,0.318067,-0.297068,0.084644,-0.036314,0.074351,0.140699,-0.131782,-0.232347,339.789032,340.883575,-1.000000,29.928131,95.041656,46.197998
461772003.805620,0.137558,-0.305679,-0.937210,0.111899,0.318408,-0.304264,0.036434,0.001913,0.024224,0.003662,-0.125988,-0.189536,339.789032,340.883575,-1.000000,29.928131,95.041656,46.197998
461772003.839009,0.154694,-0.302856,-0.927246,0.112856,0.318522,-0.312945,0.037870,0.015861,0.010812,0.057048,-0.111820,-0.253938,339.515259,340.609802,-1.000000,30.203772,95.110336,46.595993
461772003.872381,0.163742,-0.303009,-0.974426,0.111417,0.316678,-0.321076,0.065439,-0.006948,0.001146,-0.098706,-0.128135,-0.224465,339.255554,340.350098,-1.000000,30.651691,95.350708,46.430164
461772003.905695,0.140732,-0.280777,-0.996353,0.111626,0.311484,-0.328576,0.046416,0.017516,-0.046827,-0.092368,-0.160012,-0.221667,339.098633,340.193176,-1.000000,31.030697,95.591064,46.131668
461772003.939012,0.138229,-0.296509,-0.948257,0.111569,0.312020,-0.339010,0.036036,0.016363,-0.039264,0.227671,-0.104288,-0.319827,339.305634,340.400177,-1.000000,30.789511,95.762756,45.833172
461772003.971889,0.129013,-0.314575,-0.906662,0.114523,0.318574,-0.352822,0.031873,0.010814,0.013561,0.247358,-0.098649,-0.399040,339.279022,340.373566,-1.000000,31.375250,96.140472,46.264328
461772004.005651,0.127457,-0.330917,-0.862228,0.114840,0.324948,-0.369018,0.015600,-0.003387,0.056003,0.226173,-0.206961,-0.474984,339.037201,340.131744,-1.000000,31.719803,96.140465,46.396996
461772004.039028,0.138840,-0.330658,-0.884735,0.113585,0.327918,-0.384822,0.025969,-0.016886,0.093630,0.051694,-0.165315,-0.409631,339.037201,340.131744,-1.000000,31.719803,96.140465,46.396996
461772004.071874,0.122742,-0.329788,-0.885040,0.115056,0.329118,-0.398121,0.017793,0.004346,0.035881,0.094093,-0.105177,-0.375744,339.033813,340.128357,-1.000000,31.960993,97.136269,46.231163
461772004.105794,0.126846,-0.331390,-0.874527,0.117003,0.331914,-0.420924,0.016482,-0.005537,0.064430,0.053963,-0.134948,-0.468476,339.062531,340.157074,-1.000000,32.443367,97.685684,46.297497
461772004.138920,0.151459,-0.338791,-0.912659,0.118555,0.332270,-0.429342,0.025948,-0.010663,0.047296,0.020232,-0.115203,-0.477470,339.132111,340.226654,-1.000000,32.546730,97.926048,46.264336
461772004.172355,0.153976,-0.317078,-0.932449,0.120089,0.329729,-0.454177,0.046321,-0.001561,0.010605,-0.009448,-0.229245,-0.489984,339.352539,340.447083,-1.000000,32.512272,98.166420,45.766842
461772004.205657,0.208069,-0.334320,-0.942841,0.120299,0.329248,-0.473396,0.040048,0.012434,0.004693,0.123550,-0.194847,-0.601558,339.237518,340.332062,-1.000000,33.408108,98.647156,45.766842
461772004.238992,0.230347,-0.342194,-0.941910,0.123187,0.332406,-0.494288,0.109253,-0.016043,-0.005629,0.193636,-0.167782,-0.523151,339.237518,340.332062,-1.000000,33.408108,98.647156,45.766842
461772004.272322,0.166870,-0.298904,-0.909241,0.126065,0.337411,-0.511331,0.061229,0.022924,0.019257,0.257447,-0.134442,-0.438821,339.192383,340.286926,-1.000000,34.200584,99.162231,45.733673
461772004.305693,0.206589,-0.309525,-0.899307,0.127000,0.340678,-0.520038,0.047490,0.035222,0.025697,0.264668,-0.118895,-0.507243,339.245544,340.340088,-1.000000,34.441769,99.608627,45.567841
461772004.338986,0.186859,-0.311066,-0.851669,0.128634,0.345764,-0.551894,0.080027,0.023502,0.055404,0.125276,-0.345704,-0.584134,339.085876,340.180420,-1.000000,34.786320,99.745987,45.302513
461772004.372461,0.140350,-0.264114,-0.855728,0.124573,0.344751,-0.571278,0.039630,0.047252,0.104521,-0.010791,-0.270149,-0.570067,339.104279,340.198822,-1.000000,34.751862,100.192383,45.070351
461772004.405771,0.188232,-0.267380,-0.873962,0.126245,0.341689,-0.592663,0.047872,0.079067,0.057388,0.018502,-0.133345,-0.665150,243.094696,244.189240,25.000000,26.643038,-16.044731,-0.307739
461772004.439319,0.164291,-0.284195,-0.865845,0.129137,0.339396,-0.615009,0.054563,0.054506,0.069336,-0.017411,-0.199285,-0.635488,242.108505,243.203049,25.000000,26.711939,-15.632713,0.090244
461772004.472321,0.126099,-0.270538,-0.883316,0.127886,0.332322,-0.635754,0.021972,0.051810,0.062537,-0.217962,-0.297780,-0.634819,243.032272,244.126816,25.000000,26.849749,-15.083366,-0.042419
461772004.505339,0.174911,-0.264923,-0.952896,0.125391,0.321625,-0.657090,0.017001,0.046165,0.053564,-0.256870,-0.243802,-0.671036,244.630035,245.724579,25.000000,27.228708,-13.950340,-0.407238
461772004.538284,0.141022,-0.237473,-0.973465,0.127306,0.309555,-0.676892,0.042585,0.047478,-0.024385,-0.294273,-0.127789,-0.584638,245.102493,246.197037,25.000000,27.883276,-12.817299,-1.037376
461772004.572350,0.061920,-0.250748,-0.979095,0.127738,0.297581,-0.695567,-0.023861,0.048091,-0.036940,-0.230592,-0.175975,-0.592214,247.773972,248.868515,25.000000,28.158888,-12.405304,-1.302692
461772004.605354,0.072769,-0.259979,-1.026871,0.129362,0.289473,-0.715036,-0.040764,0.030213,-0.033470,-0.120071,-0.014608,-0.614939,249.563400,250.657944,25.000000,28.124437,-11.821625,-1.534847
461772004.638477,0.054459,-0.231033,-1.047943,0.134146,0.281374,-0.733558,-0.055716,0.017697,-0.074827,-0.197157,-0.011401,-0.541138,250.830994,251.925537,25.000000,28.331141,-11.272270,-1.999157
461772004.672221,0.066986,-0.255600,-1.057556,0.137443,0.274080,-0.750464,-0.075851,0.040880,-0.089937,-0.083776,0.006412,-0.555090,251.260040,252.354584,25.000000,28.675657,-11.134933,-1.733837
461772004.705569,0.037827,-0.201721,-1.087006,0.140722,0.267735,-0.765859,-0.076759,0.014242,-0.117273,-0.130726,-0.008632,-0.425976,252.110794,253.205338,25.000000,29.089071,-10.860252,-1.932823
461772004.738938,0.049469,-0.201859,-1.082809,0.139923,0.261012,-0.778629,-0.096916,0.056337,-0.130318,0.021231,-0.009558,-0.466290,252.844208,253.938751,25.000000,29.192427,-10.413910,-1.568008
461772004.772216,0.070053,-0.219452,-1.084656,0.148469,0.264483,-0.805722,-0.074345,0.043271,-0.130443,0.215351,0.050471,-0.548368,253.408981,254.503525,25.000000,29.399134,-10.070564,-1.568008
461772004.805665,0.068832,-0.222183,-1.013809,0.150384,0.268847,-0.825340,-0.055645,0.044382,-0.097920,0.246994,-0.178040,-0.566591,255.034973,256.129517,25.000000,29.571386,-9.074883,-1.468513
461772004.839143,0.044510,-0.214218,-1.009171,0.149244,0.273711,-0.844973,-0.098646,0.056088,-0.057098,0.316527,-0.085197,-0.585286,256.351624,257.446167,25.000000,29.812544,-8.353874,-1.170033
461772004.872284,0.097900,-0.237244,-0.981613,0.155386,0.284689,-0.868404,-0.054401,0.058554,-0.058833,0.508217,-0.031234,-0.657560,257.399170,258.493713,25.000000,29.778090,-7.770203,-1.335854
461772004.905684,0.047012,-0.223022,-0.945007,0.157320,0.296140,-0.890661,-0.078548,0.041297,0.014803,0.407796,-0.148052,-0.558341,258.445587,259.540131,25.000000,30.122599,-7.426857,-1.335854
461772004.938976,0.105484,-0.255859,-0.937164,0.158391,0.304846,-0.913458,-0.095739,0.090338,-0.008563,0.404760,-0.145223,-0.715777,259.781799,260.876343,25.000000,30.742720,-7.014847,-1.468513
461772004.972090,0.121048,-0.272980,-0.925812,0.159257,0.311172,-0.940497,-0.029386,0.033271,0.013796,0.221739,-0.302815,-0.735126,260.205994,261.300537,25.000000,30.708269,-6.911842,-1.568012
461772005.005655,0.143967,-0.221939,-1.007767,0.154526,0.307452,-0.962083,-0.028882,0.063526,-0.021613,0.041128,-0.238699,-0.607831,262.163483,263.258026,25.000000,30.846071,-5.813156,-1.435349
461772005.038989,0.156326,-0.221390,-0.998154,0.156006,0.307789,-0.982507,0.009856,0.078038,-0.070699,0.149483,-0.118688,-0.565497,263.156860,264.251404,25.000000,30.467115,-5.229469,-1.402187
461772005.072212,0.127777,-0.178497,-0.961166,0.155926,0.306984,-0.998727,0.008291,0.080795,-0.056469,0.024230,-0.204381,-0.408221,264.313416,265.407959,25.000000,30.363760,-4.645782,-1.435349
461772005.104771,0.079803,-0.198135,-0.936691,0.158498,0.302143,-1.012454,-0.081929,0.099721,-0.033554,0.216548,0.157938,-0.428679,264.842499,265.937042,25.000000,30.122602,-4.405441,-1.601173
461772005.139002,0.101318,-0.193665,-0.961594,0.167989,0.306988,-1.029730,-0.065923,0.103931,0.003535,0.299723,0.218585,-0.490874,265.746338,266.840881,25.000000,30.604918,-3.993431,-1.534843
461772005.172328,0.103043,-0.196930,-0.968460,0.180482,0.310514,-1.056629,-0.067876,0.108618,-0.031749,0.179042,-0.021764,-0.557733,266.312988,267.407532,25.000000,30.193256,-3.645569,-1.759525
461772005.205628,0.106567,-0.195374,-1.008682,0.176868,0.306428,-1.075365,-0.057186,0.096852,-0.054224,0.122204,-0.279216,-0.558056,266.726379,267.820923,25.000000,30.331062,-3.439568,-1.560539
461772005.239005,0.074509,-0.184219,-0.979385,0.167477,0.303216,-1.094541,-0.067706,0.127861,-0.048444,0.071467,-0.492865,-0.608716,268.370239,269.464783,25.000000,29.986553,-2.546883,-1.892189
461772005.272323,0.068909,-0.192291,-0.995789,0.160213,0.302472,-1.115386,-0.083378,0.105589,-0.053411,0.215559,-0.241859,-0.595479,269.643799,270.738342,25.000000,30.021004,-1.963203,-2.323334
461772005.305621,0.096588,-0.204041,-0.972641,0.163916,0.310700,-1.136936,-0.065862,0.119446,-0.048146,0.407180,-0.051252,-0.591034,269.693604,270.788147,25.000000,29.917652,-1.997528,-2.157513
461772005.338997,0.032883,-0.200958,-0.956268,0.161330,0.313874,-1.155367,-0.075742,0.086883,-0.013462,0.234663,-0.262127,-0.473137,270.207428,271.301971,25.000000,30.227707,-1.894531,-2.323334
461772005.372423,0.028214,-0.177155,-0.971954,0.154857,0.314921,-1.171179,-0.121461,0.123050,-0.027766,0.216893,-0.208271,-0.512857,271.102905,272.197449,25.000000,30.124355,-1.516846,-2.356499
461772005.405606,0.079834,-0.217987,-0.940903,0.152662,0.318372,-1.190333,-0.066669,0.100863,-0.019536,0.321486,-0.183079,-0.533055,272.117950,273.212494,25.000000,30.089905,-1.070496,-2.986629
461772005.438999,0.028061,-0.230728,-0.901062,0.149418,0.323911,-1.207711,-0.083413,0.096246,0.028378,0.218378,-0.287866,-0.480340,273.202850,274.297394,25.000000,29.538692,-0.452469,-2.787640
461772005.471968,0.053238,-0.227814,-0.924835,0.143730,0.323433,-1.226203,-0.101263,0.086073,0.025592,-0.034875,-0.401445,-0.588506,274.612457,275.707001,25.000000,29.607590,-0.040459,-3.649929
461772005.505628,0.071793,-0.273224,-0.980286,0.134677,0.316850,-1.246640,-0.039467,0.063131,-0.006762,-0.128309,-0.511725,-0.634484,273.848724,274.943268,25.000000,29.642040,0.062546,-3.484108
461772005.539032,0.082336,-0.240158,-0.943146,0.123780,0.313796,-1.266624,-0.078189,0.045488,-0.048815,0.167321,-0.483385,-0.593466,276.086212,277.180756,25.000000,29.090124,0.602524,-5.060486
461772005.572197,0.141693,-0.279709,-0.931107,0.121645,0.323363,-1.291625,-0.002584,0.062065,0.010746,0.454081,-0.177644,-0.776105,277.773285,278.867828,25.000000,28.711172,1.254883,-5.358967
461772005.605687,0.184280,-0.361816,-0.801529,0.122643,0.332213,-1.323113,0.071456,0.004175,0.040334,0.323258,-0.467611,-0.946240,279.387451,280.481995,25.000000,28.883425,1.975914,-5.657452
461772005.639037,0.124512,-0.396347,-0.703400,0.109072,0.331754,-1.355885,0.069824,-0.058133,0.189991,-0.109725,-0.887782,-0.939262,280.520050,281.614594,25.000000,28.538919,2.387932,-6.055428
461772005.671964,0.117813,-0.320923,-0.821259,0.091449,0.317041,-1.384761,0.004309,-0.069759,0.206400,-0.485355,-0.691824,-0.874543,282.806427,283.900970,25.000000,27.815462,3.383614,-6.619232
461772005.705706,0.189499,-0.361771,-0.746826,0.091163,0.304987,-1.418533,0.030977,-0.020642,0.128631,-0.056192,-0.119841,-1.175870,286.061859,287.156403,25.000000,26.850851,4.825645,-7.415195
461772005.740124,0.262192,-0.309052,-0.897202,0.099691,0.285349,-1.484743,0.173572,-0.067629,0.198253,-0.738318,-0.253425,-1.257833,287.456848,288.551392,25.000000,26.747499,5.546654,-7.514694
461772005.772382,0.300720,-0.331223,-1.055847,0.120714,0.269993,-1.521795,0.180649,-0.016250,-0.107679,0.164217,0.672439,-1.088137,290.606567,291.701111,25.000000,26.954195,7.469376,-7.647350
461772005.805695,0.232208,-0.356888,-0.978882,0.149157,0.283515,-1.556297,0.118985,-0.059562,-0.057540,0.575877,0.375913,-0.886831,291.839539,292.934082,25.000000,27.091997,8.156075,-6.718727
461772005.839062,0.217407,-0.341843,-0.985413,0.154037,0.285334,-1.587680,0.070427,-0.052903,-0.014379,-0.069811,-0.371334,-0.946541,293.474243,294.568787,25.000000,26.747496,9.048775,-6.718727
461772005.872387,0.223389,-0.341339,-1.093445,0.152905,0.273974,-1.615646,0.055519,-0.086848,-0.083181,-0.299307,-0.169508,-0.810002,295.759827,296.854370,25.000000,26.368540,9.701134,-6.818230
461772005.905703,0.282242,-0.328766,-1.160629,0.161378,0.264071,-1.640138,0.105847,-0.081974,-0.205594,0.002276,0.076402,-0.700345,298.754883,299.849426,25.000000,26.161837,11.486511,-7.415195
461772005.939264,0.212631,-0.302872,-1.006683,0.161697,0.278194,-1.659213,0.099484,-0.034401,-0.142314,0.890610,-0.203346,-0.402841,299.472168,300.566711,25.000000,26.024035,11.555176,-7.348866
461772005.972333,0.174820,-0.315872,-0.856033,0.154545,0.306205,-1.684956,0.012928,0.049368,0.013211,0.870166,-0.674723,-0.889972,301.004852,302.099396,25.000000,25.197226,11.761185,-7.614189
461772006.005690,0.252029,-0.439590,-0.728134,0.139505,0.313056,-1.729583,0.077392,-0.061646,0.180420,-0.032690,-0.900545,-1.414354,302.737152,303.831696,25.000000,23.957010,11.898529,-8.343815
461772006.038986,0.250168,-0.427521,-0.848312,0.141414,0.294076,-1.763219,0.120952,-0.178253,0.142982,-0.521516,0.084935,-0.695892,304.311523,305.406067,25.000000,23.509153,12.619553,-8.575970
461772006.072397,0.184113,-0.363190,-0.789703,0.156549,0.293034,-1.770233,0.091733,-0.106406,0.142015,-0.136425,0.248104,0.067957,307.437500,308.532043,25.000000,23.095751,14.267593,-8.774967
461772006.105487,0.170883,-0.386734,-0.778397,0.177947,0.277132,-1.765692,0.000628,-0.113136,0.168259,-0.665564,0.644545,-0.137682,308.991180,310.085724,25.000000,23.026850,15.228943,-8.376984
461772006.138507,0.082809,-0.244095,-0.777603,0.199682,0.235217,-1.789642,-0.139124,0.041480,0.187851,-1.449297,0.525128,-1.527215,309.301697,310.396240,25.000000,23.199106,15.675293,-8.144829
461772006.171556,0.436630,-0.370316,-1.170166,0.232570,0.171329,-1.840322,0.021278,-0.131220,0.013808,-1.584975,0.800454,-2.010467,311.023926,312.118469,25.000000,22.510096,17.186005,-7.216206
461772006.205769,0.513794,-0.317902,-1.209396,0.236318,0.134279,-1.860289,0.281777,-0.184026,-0.245941,-0.348786,-0.502605,0.182398,314.400116,315.494659,25.000000,21.924438,19.417725,-6.785061
461772006.238905,0.204803,-0.182495,-1.018494,0.213793,0.156712,-1.834506,0.063961,-0.031398,-0.065931,0.981077,-0.751769,1.275992,316.484436,317.578979,25.000000,21.407681,20.276093,-6.818230
461772006.272355,0.035873,-0.170349,-0.930969,0.190507,0.204923,-1.803639,-0.101258,0.002397,-0.019349,1.393848,-0.450417,1.078558,317.136780,318.231323,25.000000,21.579931,20.310440,-7.249371
461772006.305673,0.109009,-0.289169,-0.965897,0.159795,0.251906,-1.787780,-0.058895,0.031050,0.006913,1.313717,-1.218157,0.432880,316.248596,317.343140,25.000000,21.373232,19.417740,-8.509640
461772006.338985,0.124786,-0.343887,-0.965622,0.100900,0.292254,-1.792832,0.018090,-0.028463,-0.003862,1.187196,-2.420167,-0.219806,316.347473,317.442017,25.000000,20.029665,18.490692,-10.267387
461772006.372409,0.186172,-0.395981,-1.197571,0.017329,0.324344,-1.803013,0.158243,-0.070961,-0.093573,0.895513,-2.353305,-0.128759,317.307953,318.402496,25.000000,19.202854,18.353363,-11.859306
461772006.405737,0.080643,-0.285950,-1.117020,-0.023766,0.358411,-1.795700,0.152671,0.019274,-0.287076,1.300676,-0.531175,0.372254,319.547516,320.642059,25.000000,17.069736,17.847984,-14.939610
461772006.439000,0.026947,-0.306229,-0.959030,-0.048019,0.407370,-1.781530,0.110403,0.097627,-0.133079,1.442376,-0.556015,0.211321,320.155151,321.249695,25.000000,15.932893,17.264305,-16.498377
461772006.471974,0.051727,-0.312531,-0.785980,-0.046084,0.428496,-1.787589,0.049807,0.095954,0.056865,0.054956,-0.154507,-0.451119,320.165161,321.259705,25.000000,15.954762,16.876083,-17.607830
461772006.505677,0.112640,-0.331192,-0.864166,-0.047858,0.415760,-1.812063,0.083010,0.114136,0.157048,-0.627005,-0.229529,-0.820372,321.245087,322.339630,25.000000,15.438022,17.734451,-18.370628
461772006.539053,0.184937,-0.338638,-0.956787,-0.019061,0.397223,-1.844424,0.167859,0.053867,-0.000148,-0.513883,0.999710,-0.809795,323.306274,324.400818,25.000000,14.921283,19.279480,-18.403797
461772006.572047,0.247620,-0.258453,-1.072784,0.009874,0.393258,-1.854049,0.218098,0.065817,-0.122751,0.230861,0.643178,0.138872,323.944946,325.039490,25.000000,14.921283,19.760178,-18.271137
461772006.605694,0.052704,-0.305405,-0.937836,0.003058,0.419961,-1.838569,0.276779,0.161784,-0.116135,1.121653,-0.679731,0.437029,324.682373,325.776917,25.000000,15.575820,20.137848,-18.038982
461772006.639039,0.149429,-0.367554,-0.959885,0.028136,0.446317,-1.842999,0.027327,0.126242,-0.036150,0.564733,1.057036,-0.431233,323.699921,324.794464,25.000000,16.368156,19.485504,-18.271139
461772006.672149,0.109131,-0.358093,-0.804611,0.049236,0.459045,-1.855419,0.089302,0.069175,-0.016979,0.375573,0.238482,-0.136595,323.045715,324.140259,25.000000,16.678200,19.107819,-18.304306
461772006.705673,0.108795,-0.459976,-0.785080,0.047560,0.469111,-1.853948,0.051359,0.084891,0.126588,0.202454,-0.102008,0.069220,323.776825,324.871368,25.000000,16.574852,18.524124,-18.868113
461772006.739091,0.098099,-0.479507,-0.826843,0.054287,0.473473,-1.857398,0.060504,-0.003996,0.103599,-0.068818,0.074231,-0.020011,324.480042,325.574585,25.000000,16.299259,18.524124,-19.332422
461772006.772816,0.097168,-0.408661,-0.862244,0.065965,0.475016,-1.848247,0.031209,0.019700,0.019035,-0.106896,0.300776,0.306851,325.343445,326.437988,25.000000,16.624310,19.126221,-19.497095
461772006.805728,0.096405,-0.431870,-0.863266,0.070278,0.468859,-1.839379,0.048686,0.049907,0.020391,-0.147774,0.101847,0.247514,325.629730,326.724274,25.000000,16.693207,19.744232,-19.231773
461772006.839026,0.076874,-0.473022,-0.883224,0.072283,0.466240,-1.829554,0.022372,-0.004250,0.021273,-0.066689,0.239502,0.349241,325.184448,326.278992,25.000000,17.175488,19.744232,-19.099113
461772006.872360,0.073578,-0.435928,-0.940170,0.076766,0.464267,-1.813968,0.006195,-0.015596,-0.034036,-0.165132,0.366974,0.463123,324.245361,325.339905,25.000000,17.795563,19.194901,-19.430763
461772006.905717,0.088287,-0.400269,-0.972260,0.078979,0.457143,-1.797711,0.007910,0.047969,-0.062358,-0.133908,0.243745,0.393823,323.947754,325.042297,25.000000,17.996464,19.118546,-18.927330
461772006.939011,0.103500,-0.404739,-0.974442,0.082897,0.447827,-1.786762,0.018304,0.027139,-0.076604,-0.014564,0.230377,0.282608,323.074341,324.168884,25.000000,18.616539,19.118546,-19.192652
461772006.971868,0.154694,-0.361969,-0.990143,0.091633,0.440394,-1.780029,0.042547,0.039531,-0.070555,0.007505,0.237153,0.181428,322.237000,323.331543,25.000000,19.305508,19.393219,-18.993664
461772007.005657,0.246445,-0.351379,-0.951813,0.095464,0.433025,-1.780869,0.129909,0.063356,-0.082104,-0.032150,-0.193364,-0.042748,321.841858,322.936401,25.000000,19.684441,19.221542,-19.026825
461772007.039029,0.181366,-0.393723,-1.063293,0.091965,0.424441,-1.776608,0.147377,0.044639,-0.046790,-0.537143,0.145434,0.226963,322.351349,323.445892,25.000000,19.546650,19.702225,-19.159485
461772007.072351,0.158493,-0.348862,-1.122208,0.102805,0.397852,-1.760720,0.086758,-0.006284,-0.146265,-0.995710,0.815067,0.440052,322.659851,323.754395,25.000000,19.581097,20.079895,-19.059992
461772007.105642,0.079590,-0.288437,-1.141464,0.128464,0.370226,-1.742057,0.033524,0.046671,-0.212567,-0.778218,1.065395,0.390419,322.581787,323.676331,25.000000,19.856682,20.560577,-18.794676
461772007.138990,0.180313,-0.303299,-1.006622,0.159846,0.355366,-1.733765,-0.046133,0.043780,-0.201706,0.126239,0.156217,-0.169463,321.178162,322.272705,25.000000,21.372414,21.315903,-17.866056
461772007.172351,0.233398,-0.299835,-0.850555,0.157404,0.360423,-1.739741,0.033630,0.049372,-0.082443,0.476361,-0.486958,-0.347043,320.589111,321.683655,25.000000,22.061382,21.590576,-17.667065
461772007.205666,0.231323,-0.325989,-0.693649,0.122159,0.395655,-1.763494,0.109162,0.059485,0.209798,0.879164,-0.866205,-0.243803,324.301697,325.396240,25.000000,21.510204,21.315903,-18.728340
461772007.238995,0.305344,-0.201523,-0.639938,0.107374,0.422093,-1.773418,0.169572,0.111285,0.223630,0.807334,-0.459308,-0.178864,325.530151,326.624695,25.000000,20.683441,21.109909,-19.192648
461772007.272361,0.320801,-0.176880,-0.619232,0.099167,0.441046,-1.786718,0.228661,0.257284,0.276556,0.421140,-0.441889,-0.441797,323.795898,324.890442,25.000000,20.171602,20.803482,-18.882984
461772007.305710,0.156494,-0.342499,-0.643158,0.088412,0.441321,-1.805093,0.139401,0.118983,0.249091,-0.163367,-0.670209,-0.486690,324.729309,325.823853,25.000000,19.482632,20.528824,-19.877878
461772007.338995,0.099457,-0.270599,-0.579147,0.076708,0.431356,-1.818248,0.000608,0.089077,0.316037,-0.329693,-0.331403,-0.383974,325.191711,326.286255,25.000000,19.517082,20.700485,-20.507982
461772007.372342,0.150955,-0.266434,-0.577652,0.081401,0.417938,-1.836580,0.047911,0.144692,0.334654,-0.397433,0.006211,-0.641622,326.807831,327.902374,25.000000,18.621420,21.455795,-21.038595
461772007.405682,0.237610,-0.451172,-0.677139,0.094584,0.400656,-1.855414,0.130199,0.052392,0.300829,-0.607093,0.318634,-0.462112,327.959137,329.053680,25.000000,18.070246,22.417099,-20.640638
461772007.439248,0.237793,-0.479156,-0.921387,0.112409,0.370559,-1.854460,0.143779,-0.132080,0.148334,-1.187070,0.777873,0.225516,328.457520,329.552063,25.000000,17.898003,22.794785,-20.541147
461772007.471934,0.204575,-0.390137,-1.057800,0.136350,0.327665,-1.830337,0.091931,-0.116690,-0.052592,-1.499080,1.021242,0.708719,327.878021,328.972565,25.000000,19.241493,23.653076,-19.844719
461772007.505694,0.122437,-0.263306,-1.021484,0.147519,0.287047,-1.803111,0.016989,-0.026159,-0.148333,-1.145133,0.193380,0.424426,326.054443,327.148987,25.000000,21.377298,24.545746,-19.115126
461772007.538970,0.179108,-0.331100,-0.824402,0.140126,0.265317,-1.799864,-0.012986,0.000985,-0.009827,-0.346924,-0.377757,-0.347041,325.471283,326.565826,25.000000,21.997375,25.301071,-18.385534
461772007.572245,0.208572,-0.321350,-0.732224,0.129204,0.264317,-1.824204,0.065571,-0.072231,0.174572,0.285288,-0.619406,-0.924195,327.330170,328.424713,25.000000,21.756235,26.365417,-18.352369
461772007.605636,0.243423,-0.336395,-0.732178,0.132409,0.276814,-1.882922,0.116427,-0.063102,0.221333,0.296481,0.207970,-1.099497,328.888245,329.982788,25.000000,20.826126,26.880402,-18.916143
461772007.638975,0.336029,-0.234253,-0.875793,0.158182,0.281244,-1.922785,0.137866,-0.041312,0.053728,0.351309,0.533291,-1.259703,329.464691,330.559235,25.000000,20.791674,27.052078,-19.546244
461772007.672716,0.380600,-0.034348,-0.745163,0.183750,0.288114,-1.972026,0.205414,0.249797,0.197478,0.441415,0.548572,-1.532453,330.711487,331.806030,25.000000,20.447193,27.670074,-19.811550
461772007.705788,0.205521,0.074142,-0.830399,0.252564,0.282738,-2.039670,0.013651,0.326685,0.183309,0.273069,2.319657,-2.535952,330.710724,331.805267,25.000000,21.001301,28.415901,-20.016623
461772007.738725,0.376038,0.075607,-1.122437,0.311719,0.278032,-2.091821,-0.046154,0.395771,-0.023022,0.784159,2.940291,-3.298308,331.213257,332.307800,25.000000,21.276897,29.239861,-19.419724
461772007.771991,0.346344,-0.089401,-1.234512,0.481167,0.259847,-2.273917,-0.100933,0.167531,-0.377816,0.395774,1.872206,-3.466318,333.397491,334.492035,25.000000,21.759190,30.887764,-18.358568
461772007.804780,0.402451,-0.202545,-1.332458,0.524155,0.186509,-2.368887,-0.091487,-0.055629,-0.559438,-0.926644,-0.261738,-3.622305,340.323547,341.418091,25.000000,20.545712,34.061401,-18.325684
461772007.838968,0.611938,0.012115,-0.949768,0.513964,0.117562,-2.460248,-0.049900,0.024717,-0.292755,-0.009053,-0.894264,-3.402805,348.980316,350.074860,25.000000,16.894035,37.288437,-18.657293
461772007.872382,0.476257,0.168182,-0.950073,0.506540,0.096439,-2.507428,0.129038,0.108405,-0.079403,0.385534,-0.606919,-3.045183,352.935028,354.029572,25.000000,14.758152,39.485565,-18.723618
461772007.905690,0.501999,0.240265,-0.994522,0.519052,0.047602,-2.624211,-0.034298,0.251152,-0.098361,-0.064068,0.422830,-2.502546,359.633423,0.727974,25.000000,10.899778,41.339401,-19.187874
461772007.939018,0.636047,-0.126343,-1.295288,0.539197,-0.007930,-2.684886,0.046276,0.077565,-0.287032,-0.762296,0.543310,-2.368779,3.239843,4.334394,25.000000,8.074902,43.742523,-18.922585
461772007.972262,0.751068,-0.013824,-1.183029,0.543031,-0.049959,-2.725140,0.154337,-0.207501,-0.453119,-0.120445,-0.226077,-1.148378,5.642838,6.737389,25.000000,6.834710,44.291824,-18.922585
461772008.005666,0.690582,-0.002747,-1.060501,0.514536,-0.052685,-2.740438,0.227348,-0.066759,-0.319896,0.254122,-1.528785,-0.052807,10.434156,11.528708,25.000000,4.871075,44.944092,-18.756777
461772008.039104,0.592239,-0.070770,-0.754761,0.444170,-0.042684,-2.727676,0.252034,-0.078102,0.134262,-0.122698,-2.275545,0.871657,13.385278,14.479829,25.000000,3.079690,44.463470,-19.154709
461772008.072280,0.482620,-0.037979,-0.992752,0.388494,-0.037778,-2.690537,0.176986,-0.072223,0.110459,-0.364762,-1.310795,1.145681,13.022705,14.117256,25.000000,3.114142,44.497803,-18.922583
461772008.105669,0.455078,-0.112976,-0.950607,0.358996,-0.030756,-2.660424,0.131452,-0.068730,-0.056945,0.100884,-0.869048,0.847151,11.123086,12.217637,25.000000,2.838544,45.184387,-19.320517
461772008.139038,0.638794,-0.140594,-0.856567,0.334634,-0.009472,-2.632528,0.207403,-0.091854,0.015182,0.366139,-0.653193,1.265498,9.375999,10.470551,25.000000,3.906486,45.012741,-19.552643
461772008.172043,0.483276,-0.103806,-1.003799,0.317410,0.005000,-2.579006,0.289246,-0.168294,0.110313,-0.493719,-0.415717,2.012978,8.244648,9.339199,25.000000,4.767729,44.085831,-19.851091
461772008.205682,0.494339,-0.076035,-1.162338,0.314105,0.007521,-2.506744,0.174320,-0.096284,-0.052753,-0.556657,0.096137,2.202602,5.098418,6.192969,25.000000,7.144758,43.090256,-20.149544
461772008.239080,0.476624,-0.157288,-1.058853,0.313766,0.015380,-2.433015,0.163058,-0.094835,-0.202636,-0.448547,-0.116067,2.311686,0.587520,1.682071,25.000000,9.866285,42.163330,-19.055227
461772008.272184,0.369171,0.034546,-1.017303,0.303794,0.034109,-2.306794,0.128385,0.017577,-0.048925,-0.445460,0.083116,2.617224,355.691650,356.786194,25.000000,12.863413,40.961792,-18.159878
461772008.305656,0.390060,0.125885,-1.112717,0.317240,0.043236,-2.236162,0.078406,0.169108,-0.163505,-0.313450,0.724024,1.882269,352.669373,353.763916,25.000000,14.895947,40.034882,-17.795109
461772008.338512,0.346664,0.050125,-1.328415,0.333223,0.053361,-2.179386,0.017674,0.141028,-0.357240,-0.287962,0.357666,1.786072,346.758728,347.853271,25.000000,18.203125,38.249695,-17.131887
461772008.372317,0.395462,-0.093323,-1.035904,0.323374,0.063541,-2.113781,0.106183,0.054419,-0.227283,-0.411781,-0.499790,2.202381,342.464142,343.558685,25.000000,20.959103,36.945145,-16.137058
461772008.405772,0.317154,-0.163086,-1.115479,0.303227,0.070547,-2.041177,0.055321,-0.062934,-0.098487,-0.494799,-0.360140,2.086892,341.460632,342.555176,25.000000,21.958149,36.018219,-15.971251
461772008.439006,0.292313,-0.169724,-1.170471,0.285687,0.082815,-1.986063,-0.030256,-0.102384,-0.248181,0.272140,-0.587541,1.533806,337.582336,338.676880,25.000000,23.026091,33.443466,-16.004414
461772008.472277,0.377319,-0.025055,-0.732971,0.251612,0.120464,-1.946861,0.144120,0.003351,0.048209,1.066209,-1.054126,1.474983,333.100922,334.195465,25.000000,23.818436,30.250763,-16.767117
461772008.505862,0.210007,0.026520,-0.900009,0.228102,0.165517,-1.911775,0.116683,0.193907,0.237976,1.029590,-0.169332,1.212120,331.541260,332.635803,25.000000,23.680637,28.877548,-17.231369
461772008.539030,0.366776,0.012115,-0.879150,0.227956,0.197857,-1.888770,-0.011571,0.223089,0.055116,0.679655,0.116005,0.811313,325.404663,326.499207,25.000000,26.353638,23.471909,-26.234135
461772008.572363,0.346344,-0.002914,-0.854294,0.205392,0.214242,-1.852487,0.170020,0.290137,0.117000,-0.089765,-0.596155,1.454265,323.173553,324.268097,25.000000,26.801575,21.653152,-26.598900
461772008.605990,0.243240,0.044830,-0.826279,0.176701,0.213177,-1.798428,0.157831,0.204776,0.138491,-0.452258,-0.553152,1.612110,322.266968,323.361511,25.000000,26.732658,20.760956,-26.399937
461772008.639054,0.171692,0.137924,-0.712112,0.140536,0.199016,-1.726300,0.034382,0.335629,0.258485,-0.586460,-0.345213,1.150282,320.646973,321.741516,25.000000,26.319180,19.319687,-26.665222
461772008.672393,0.204422,-0.007797,-0.719299,0.126944,0.168985,-1.695742,0.071245,0.171539,0.298487,-1.424271,-0.134474,0.618386,317.669250,318.763794,25.000000,26.250263,18.496094,-26.532579
461772008.705632,0.167679,-0.005020,-0.818695,0.121660,0.122717,-1.669264,0.020025,0.117954,0.162253,-1.435761,-0.003034,0.631629,316.090088,317.184631,25.000000,26.698200,18.461792,-26.366779
461772008.739046,0.318970,-0.016785,-0.772049,0.119628,0.101590,-1.657566,0.048951,0.096395,0.169039,-1.403477,-0.106909,0.514568,314.189270,315.283813,25.000000,27.008308,19.182419,-25.869371
461772008.772659,0.406342,-0.004608,-0.874420,0.104153,0.019612,-1.614002,0.316389,0.012423,0.219930,-1.846019,0.134051,1.122460,312.522766,313.617310,25.000000,27.352875,19.937363,-25.206161
461772008.805619,0.092102,0.131897,-1.054779,0.122426,-0.016182,-1.567779,0.180294,0.072427,-0.034958,-0.718183,0.779349,1.340596,311.937439,313.031982,25.000000,27.249508,20.383453,-24.907715
461772008.839128,0.047485,0.151550,-0.994446,0.143539,-0.021562,-1.534810,-0.097588,0.135834,-0.051316,-0.126224,0.401789,0.563183,309.232910,310.327454,25.000000,28.007553,20.795258,-23.780254
461772008.872186,0.237656,-0.004501,-0.780685,0.147207,-0.021514,-1.531044,-0.043050,0.110812,0.006396,-0.011121,0.132440,0.103135,307.166321,308.260864,25.000000,28.662231,20.692322,-23.083883
461772008.905604,0.278076,-0.099838,-0.968292,0.131378,-0.036098,-1.529013,0.139288,-0.141544,0.152342,-0.499338,-0.505306,0.224102,306.699402,307.793945,25.000000,28.972343,20.589386,-22.918083
461772008.938971,0.250381,-0.021591,-1.059311,0.115780,-0.045512,-1.515676,0.172059,-0.111658,-0.044863,-0.061201,-0.362476,0.448073,306.413116,307.507660,25.000000,28.731144,20.211899,-22.818602
461772008.972059,0.201019,0.158157,-1.029037,0.102843,-0.031522,-1.497545,0.107824,-0.034019,-0.081950,0.530150,-0.626374,0.705329,305.643005,306.737549,25.000000,28.788177,19.859818,-23.518745
461772009.005661,0.162369,0.175034,-0.829651,0.071147,-0.014078,-1.470596,0.080501,0.120383,0.131466,0.396434,-1.236858,0.943416,304.137115,305.231659,25.000000,28.650349,18.761780,-24.181957
461772009.039033,0.090408,0.149811,-1.014297,0.042489,-0.012323,-1.445781,0.094078,0.161063,0.087126,-0.248952,-0.421051,0.577766,303.263245,304.357788,25.000000,29.063839,18.281372,-24.513559
461772009.072334,0.114319,0.068451,-1.272247,0.052994,-0.018159,-1.437449,0.032962,0.023941,-0.126492,-0.086281,0.774516,0.082744,301.412689,302.507233,25.000000,29.201668,17.595093,-24.712526
461772009.105660,0.088623,-0.058105,-1.275848,0.079437,-0.019318,-1.435652,0.022240,0.091371,-0.300321,-0.100741,0.594314,0.107610,300.650208,301.744751,25.000000,29.477329,17.663712,-23.982992
461772009.138920,0.124603,-0.063446,-1.092010,0.087122,-0.016329,-1.427301,0.027334,-0.088426,-0.181843,0.249519,-0.019440,0.372609,300.659241,301.753784,25.000000,29.546246,17.732330,-23.916674
461772009.172321,0.076477,-0.004715,-0.921143,0.083182,-0.002720,-1.413366,0.066146,-0.044056,0.015002,0.439810,-0.093009,0.541941,300.384827,301.479370,25.000000,29.615162,16.977432,-23.651392
461772009.205687,0.057816,0.020172,-0.897644,0.079451,0.010733,-1.398576,-0.040835,0.009207,0.076576,0.353159,-0.077607,0.370323,299.823334,300.917877,25.000000,29.615158,16.428406,-23.717712
461772009.239071,0.083344,0.019104,-0.875366,0.082909,0.034485,-1.395529,0.000579,0.053582,0.120606,0.519552,0.131497,-0.078240,299.263855,300.358398,25.000000,29.752987,15.810745,-23.585070
461772009.272185,0.203308,0.051819,-0.868958,0.089522,0.046877,-1.396119,0.114736,0.068756,0.152143,0.188349,0.237380,0.158520,298.679016,299.773560,25.000000,29.821903,15.193085,-23.850349
461772009.305689,0.063675,0.032852,-1.103455,0.093009,0.039947,-1.386098,0.021549,0.113331,0.012416,-0.448011,0.060556,0.295769,299.023621,300.118164,25.000000,29.821903,14.849945,-23.784029
461772009.338918,0.112732,-0.066772,-1.109497,0.095485,0.024718,-1.378542,0.000392,-0.004246,-0.135429,-0.203072,0.188835,0.170697,299.708618,300.803162,25.000000,29.649616,15.227402,-23.618227
461772009.371999,0.101562,-0.047333,-1.002182,0.101718,0.027403,-1.370352,0.010510,-0.041036,-0.063892,0.209303,0.111957,0.367380,299.737366,300.831909,25.000000,29.890820,15.467606,-23.386103
461772009.405079,0.047211,-0.029053,-0.815536,0.096332,0.034447,-1.355701,-0.033031,0.019227,0.118018,0.064680,-0.258553,0.494411,298.830414,299.924957,25.000000,30.304310,15.398972,-23.187141
461772009.439378,0.075836,-0.064194,-0.893402,0.087373,0.030788,-1.343051,-0.037248,-0.004586,0.181977,-0.258039,-0.177380,0.259330,298.603790,299.698334,25.000000,30.476597,15.227402,-22.955017
461772009.472215,0.122086,-0.119812,-0.916458,0.090342,0.022363,-1.340429,0.008314,-0.072167,0.096198,-0.245077,0.251670,-0.042533,298.305328,299.399872,25.000000,30.855633,15.261719,-22.590248
461772009.505980,0.141083,-0.096100,-0.975266,0.103896,0.023538,-1.338695,0.042544,-0.101587,0.018075,-0.274414,0.242893,0.114716,297.716980,298.811523,25.000000,30.821171,15.158783,-22.225487
461772009.538967,0.115723,-0.050369,-0.972458,0.107622,0.017520,-1.332105,0.025827,-0.061476,0.044095,-0.188969,0.072320,0.187830,298.091583,299.186127,25.000000,30.855633,15.604874,-21.529118
461772009.572382,0.143341,-0.068146,-1.019608,0.112015,0.013919,-1.327761,0.010667,-0.041303,-0.005417,-0.243200,0.134372,0.041615,298.511536,299.606079,25.000000,30.890091,15.913696,-21.893883
461772009.605777,0.176590,-0.109985,-1.047379,0.122828,0.011625,-1.325763,0.042910,-0.085863,-0.061648,-0.091890,0.071516,0.114160,298.585907,299.680450,25.000000,31.062378,16.085266,-21.661758
461772009.639040,0.122223,-0.070862,-1.025131,0.125230,0.017599,-1.322435,0.056970,-0.094203,-0.033238,-0.062322,-0.103354,0.246673,298.972351,300.066895,25.000000,31.062378,16.291153,-22.126007
461772009.672416,0.119507,-0.081497,-1.014465,0.118015,0.023031,-1.310370,0.001797,-0.058468,-0.021684,0.164228,-0.058306,0.143037,299.257477,300.352020,25.000000,30.786716,16.291153,-21.794399
461772009.705678,0.158707,-0.111298,-1.120331,0.120130,0.035269,-1.307762,0.028671,-0.058992,-0.079159,0.302364,0.052668,0.125909,300.780182,301.874725,25.000000,30.752258,16.256836,-22.092842
461772009.739044,0.221085,-0.118820,-1.072647,0.120304,0.042733,-1.305629,0.056350,-0.089895,-0.175676,0.541050,-0.007973,0.230820,300.320282,301.414825,25.000000,31.062378,15.810745,-22.059681
461772009.771993,0.204483,-0.064972,-1.010071,0.119788,0.096265,-1.286956,0.085534,0.031144,-0.021834,1.250104,0.278269,0.646978,299.587616,300.682159,25.000000,31.475872,15.193085,-22.523930
461772009.805681,0.283813,-0.121078,-1.263977,0.134650,0.131077,-1.271757,0.111521,0.027019,-0.126683,0.702284,0.445294,0.664307,298.740570,299.835114,25.000000,31.992733,14.197983,-22.623417
461772009.839041,0.209137,-0.191467,-1.450531,0.123759,0.158036,-1.232266,0.024793,-0.002930,-0.442637,0.798263,-0.714034,1.716058,298.900726,299.995270,25.000000,31.475868,12.859726,-22.988178
461772009.872027,0.300140,-0.206253,-1.162979,0.062252,0.190405,-1.164150,0.203744,-0.031645,-0.376099,0.781703,-2.088961,2.522652,297.678345,298.772888,25.000000,31.372494,11.590103,-23.419264
461772009.905634,-0.193466,-0.116623,-0.930969,-0.000295,0.218687,-1.087512,-0.149554,0.166670,0.031557,0.899252,-0.555601,1.821395,294.693665,295.788208,25.000000,30.752258,8.227341,-24.812006
461772009.938967,-0.013412,-0.251526,-0.888641,0.009301,0.251952,-1.067087,-0.166874,0.057278,0.015032,1.105612,0.764561,-0.089769,289.980286,291.074829,25.000000,30.924545,5.310623,-26.038946
461772009.972185,-0.313751,-0.175751,-0.899628,0.021295,0.280959,-1.075008,-0.064969,0.018748,0.097382,0.652270,-0.193755,-0.211788,288.282837,289.377380,25.000000,30.476597,4.384140,-26.138428
461772010.005665,0.267181,-0.326935,-0.840485,0.001840,0.295230,-1.079413,0.298579,-0.027751,0.117409,0.297037,-0.982710,0.420454,288.791351,289.885895,25.000000,29.994190,3.697853,-26.735317
461772010.039001,-0.119934,-0.066681,-0.931091,-0.054533,0.305545,-1.038330,0.265376,0.066957,0.027613,0.451605,-1.595307,1.856395,290.241760,291.336304,25.000000,28.650349,2.908623,-28.028578
461772010.072321,-0.213226,-0.217316,-1.131638,-0.148190,0.308247,-0.959806,0.001895,0.226560,0.029994,0.048074,-2.709974,2.358531,289.304810,290.399353,25.000000,26.134945,1.364494,-30.051371
461772010.105657,-0.246704,-0.166687,-1.069626,-0.275756,0.291461,-0.886952,0.047565,0.070036,-0.210000,0.089168,-3.922144,2.230620,289.334290,290.428833,25.000000,24.101946,0.300766,-31.344631
461772010.138990,-0.406891,-0.201630,-0.954712,-0.442599,0.267899,-0.813103,0.131579,0.111981,-0.167533,-0.147730,-4.826074,2.358600,286.640503,287.735046,25.000000,18.209702,-1.929657,-34.030632
461772010.172330,-0.556335,-0.089584,-0.713882,-0.623358,0.219023,-0.750874,0.110270,-0.007333,-0.144867,-0.409153,-5.328394,2.521431,285.100891,286.195435,25.000000,10.112171,-2.307114,-37.114559
461772010.206031,-0.636887,-0.072220,-0.567261,-0.811793,0.152987,-0.696914,0.160713,0.062807,-0.033722,-0.509983,-5.505041,2.451659,283.579803,284.674347,25.000000,5.908348,-2.238480,-38.175697
461772010.238966,-0.733597,-0.206284,-0.368011,-0.977753,0.093772,-0.671453,0.136193,-0.009240,0.048604,-0.540006,-4.660804,1.510915,279.409973,280.504517,25.000000,-2.568215,-1.140419,-39.568443
461772010.271896,-0.690247,-0.265076,-0.340302,-1.102671,0.055294,-0.662002,0.165557,-0.181673,0.111047,-0.184619,-3.062975,1.125601,274.168762,275.263306,25.000000,-8.494916,0.163513,-39.303158
461772010.305605,-0.677216,-0.292938,-0.378296,-1.170682,0.003117,-0.628222,0.251761,-0.280010,0.036784,0.472592,-0.216035,1.633011,272.838928,273.933472,25.000000,-10.527913,0.952736,-38.872066
461772010.338955,-0.774673,-0.001007,-0.525238,-1.149625,-0.041004,-0.588327,0.107019,-0.113121,-0.077308,0.611419,1.093595,1.553921,271.385071,272.479614,25.000000,-12.009590,1.673340,-38.639946
461772010.372325,-0.825089,0.028107,-0.561295,-1.112883,-0.063023,-0.556837,0.088372,0.004935,-0.122735,0.593811,0.901983,0.612613,267.369354,268.463898,25.000000,-11.492731,1.433136,-38.872066
461772010.405651,-0.898804,-0.118591,-0.536072,-1.093667,-0.056245,-0.536925,0.046885,-0.092623,-0.095649,0.708565,0.367159,-0.143700,264.333710,265.428253,25.000000,-11.182611,1.055687,-39.303158
461772010.438974,-0.961014,-0.144608,-0.501495,-1.073447,-0.041441,-0.517229,-0.149141,-0.192873,-0.027661,0.783328,1.017625,-0.076408,260.100800,261.195343,25.000000,-9.804307,0.232132,-39.701080
461772010.472282,-0.951935,-0.058136,-0.780151,-1.018226,-0.031250,-0.498946,-0.120780,-0.174357,-0.167197,0.530615,2.049063,0.040707,259.041870,260.136414,25.000000,-8.460463,-0.900230,-40.065849
461772010.506020,-0.928986,-0.078873,-0.756119,-0.962244,-0.028545,-0.483482,-0.097598,-0.051536,-0.197488,0.358257,1.438786,0.284597,258.213867,259.308411,25.000000,-5.255911,-2.101227,-40.231647
461772010.539024,-0.811737,0.069244,-0.806854,-0.923366,-0.019654,-0.482496,-0.077335,0.004990,-0.200277,0.085193,1.235122,-0.603643,257.589844,258.684387,25.000000,-3.877609,-2.718887,-40.364292
461772010.572409,-0.702972,-0.032745,-0.745255,-0.884594,0.003334,-0.496838,-0.030439,0.040764,-0.174139,0.282496,1.214094,-0.919133,257.009613,258.104156,25.000000,-1.121000,-3.130661,-40.762215
461772010.605818,-0.744843,-0.072098,-0.751373,-0.810991,0.056446,-0.480364,-0.021027,-0.015682,-0.063690,1.436448,1.849769,0.028876,257.091003,258.185547,25.000000,1.601149,-4.263023,-40.795380
461772010.639016,-0.764954,0.106796,-0.614853,-0.707454,0.079040,-0.444158,-0.117082,0.185754,0.142793,1.069268,4.481305,0.235314,257.465088,258.559631,25.000000,3.771978,-5.258133,-40.496933
461772010.672393,-0.278290,0.060669,-1.049423,-0.545228,0.115959,-0.430400,0.141854,0.251457,-0.011481,1.572765,4.474288,-0.630649,257.312195,258.406738,25.000000,9.560852,-7.797379,-38.971550
461772010.705615,-0.195221,-0.006332,-0.841766,-0.446467,0.188178,-0.412844,0.232875,0.162716,0.061577,2.505803,2.573938,-0.414257,254.753845,255.848389,25.000000,15.797672,-10.576828,-36.418190
461772010.739029,-0.050003,-0.143509,-1.007339,-0.354778,0.244270,-0.398429,0.177738,0.173748,-0.093669,1.267315,3.264801,-0.330564,253.990570,255.085114,25.000000,18.554277,-11.812134,-35.025452
461772010.772401,-0.102905,-0.090668,-1.077591,-0.301156,0.265494,-0.398123,0.182105,0.090892,-0.191015,1.264645,3.247272,-0.396291,253.771606,254.866150,25.000000,23.378338,-13.939598,-32.372604
461772010.805688,-0.042053,-0.251358,-0.920166,-0.207278,0.332421,-0.398643,0.171063,0.209496,-0.013440,1.192222,1.822894,0.073640,253.043365,254.137909,25.000000,27.030842,-15.586685,-29.719763
461772010.839127,-0.127365,-0.239563,-0.899811,-0.169929,0.351986,-0.373321,0.065314,0.055670,0.007567,0.480516,0.844925,0.631839,252.985229,254.079773,25.000000,28.064568,-16.067078,-28.260702
461772010.872492,-0.031311,-0.116379,-0.868866,-0.156154,0.359157,-0.367831,-0.011538,0.193542,-0.038149,0.341310,0.309923,-0.366758,252.714142,253.808685,25.000000,29.477325,-16.787682,-26.105267
461772010.905798,0.120773,-0.212936,-0.554565,-0.148363,0.370644,-0.377382,0.106471,0.245837,0.052989,0.748149,0.238695,-0.711867,251.444000,252.538544,25.000000,30.373222,-17.336700,-25.243092
461772010.938950,0.162750,-0.260071,-0.615387,-0.103482,0.413374,-0.367936,0.282783,0.142531,0.348357,0.740947,1.893484,0.938150,251.341003,252.435547,25.000000,31.338036,-17.542587,-24.845163
461772010.972801,-2.450150,-0.765961,-0.644699,-0.088211,0.433031,-0.299089,0.153680,0.140953,0.272608,0.865595,0.440009,2.533525,251.426285,252.520828,25.000000,32.681881,-19.292595,-23.286621
461772011.005224,-0.064468,-0.450989,-0.818909,-0.089535,0.440755,-0.326507,0.240248,0.296755,0.327473,-0.516378,0.074404,-1.953344,249.822876,250.917419,25.000000,33.543320,-20.013184,-21.993362
461772011.038461,0.054077,-0.584961,-0.701477,-0.051959,0.439519,-0.392634,0.113100,-0.067919,0.184482,-0.080200,0.320399,-1.492510,250.405548,251.500092,25.000000,34.025730,-19.189659,-21.661755
461772011.072002,0.002777,-0.290115,-0.894257,-0.019483,0.423866,-0.418016,-0.002765,-0.028349,0.126192,-0.736522,0.867859,-0.445215,251.348206,252.442749,25.000000,35.093918,-18.400429,-21.495953
461772011.105666,0.235916,-0.315109,-0.963303,0.035556,0.396868,-0.437077,0.009115,0.120906,-0.012068,-0.851779,1.832978,-0.671658,254.592743,255.687286,25.000000,36.885712,-16.684723,-20.501137
461772011.138990,0.256653,-0.319824,-0.912430,0.087707,0.369326,-0.460954,0.154228,0.045878,-0.034316,-0.814617,0.747411,-0.766699,256.047546,257.142090,25.000000,38.677505,-14.969009,-19.837929
461772011.172321,0.228760,-0.343613,-1.018738,0.106418,0.337768,-0.487303,0.099827,-0.030480,0.020114,-0.949686,0.228309,-0.874801,256.511017,257.605560,25.000000,39.470024,-14.179787,-19.406837
461772011.205661,0.487000,-0.315140,-1.081161,0.144017,0.310951,-0.501980,0.103719,-0.002385,-0.163190,-0.456771,1.452867,-0.284201,257.528412,258.622955,25.000000,40.744957,-12.772911,-18.179901
461772011.238926,0.465179,-0.218781,-1.004990,0.175851,0.309163,-0.512546,0.320348,-0.010878,-0.143264,-0.128851,0.239377,-0.416007,257.990234,259.084778,25.000000,41.330730,-12.052338,-17.549850
461772011.272517,0.347672,-0.176666,-1.135803,0.149755,0.258696,-0.513131,0.273219,0.085334,-0.090024,-1.743820,-0.694418,0.066528,258.665710,259.760254,25.000000,41.606396,-11.228798,-17.748814
461772011.305667,0.173737,-0.064819,-1.209900,0.129097,0.216983,-0.500151,0.082166,0.069197,-0.307011,-0.670122,-0.522082,0.162117,260.005035,261.099579,25.000000,41.847595,-10.027794,-19.440002
461772011.339160,0.220306,-0.097198,-1.001648,0.106641,0.231047,-0.506623,0.116696,0.131798,-0.033751,1.048796,-0.871366,-0.347098,260.312714,261.407257,25.000000,41.847595,-9.204247,-20.832745
461772011.372313,0.300125,-0.297043,-0.813187,0.084026,0.262810,-0.520310,0.238687,-0.019242,0.150336,0.807123,-0.735526,-0.168514,259.644318,260.738861,25.000000,41.503021,-9.135612,-21.495953
461772011.405630,0.298370,-0.210419,-0.787094,0.062780,0.278802,-0.518746,0.233919,0.048611,0.151112,0.297950,-0.615899,0.189972,259.772400,260.866943,25.000000,41.296272,-9.547379,-22.490772
461772011.438980,0.232864,-0.184128,-0.873688,0.039113,0.276979,-0.508941,0.266709,0.060942,0.181365,-0.328616,-0.640166,0.395271,260.478546,261.573090,25.000000,41.468571,-10.267982,-22.789215
461772011.472387,0.146866,-0.159973,-0.915375,0.023110,0.263388,-0.491360,0.171155,0.087303,0.060043,-0.366800,-0.102866,0.545789,260.520660,261.615204,25.000000,41.503025,-10.508186,-22.955017
461772011.505698,0.080322,-0.211746,-0.851227,0.025446,0.262327,-0.477205,0.059061,0.076558,0.056495,0.190067,0.332609,0.298040,269.105988,270.200531,25.000000,39.544792,-8.719666,-25.424191
461772011.539013,0.129059,-0.295883,-0.792023,0.034668,0.272360,-0.473304,0.060748,0.042916,0.150365,0.261733,0.246158,0.033483,267.855438,268.949982,25.000000,39.165855,-9.234474,-25.059452
461772011.572104,0.125259,-0.308792,-0.854980,0.038977,0.268737,-0.472280,0.091491,-0.030370,0.171352,-0.336421,0.095638,0.065792,267.683960,268.778503,25.000000,39.338097,-9.337440,-25.158924
461772011.605190,0.108170,-0.289032,-0.925842,0.050464,0.260920,-0.464227,0.049882,-0.036113,0.026080,0.174244,0.496348,0.154765,267.016388,268.110931,25.000000,39.751480,-10.023834,-24.495770
461772011.639014,0.167191,-0.310669,-0.946701,0.072315,0.271254,-0.460225,0.078934,-0.036534,0.036739,0.318135,0.799954,0.136979,265.954346,267.048889,25.000000,40.302658,-10.572960,-23.368404
461772011.672333,0.165131,-0.320572,-0.955261,0.092339,0.276109,-0.456424,0.076415,-0.047958,0.002763,-0.079905,0.339020,0.122666,265.082062,266.176605,25.000000,40.784939,-11.190720,-22.506298
461772011.705974,0.146057,-0.322861,-0.951431,0.099789,0.277643,-0.453090,0.094271,-0.070347,0.017238,-0.217839,-0.233972,0.243195,264.917236,266.011780,25.000000,41.646160,-11.362320,-21.743668
461772011.738035,0.090866,-0.262283,-0.965530,0.092454,0.278694,-0.447007,0.004272,-0.006745,-0.005566,0.199052,-0.094438,0.071747,264.919647,266.014191,25.000000,42.404026,-11.568237,-22.008934
461772011.772383,0.154587,-0.277405,-0.940613,0.091232,0.284332,-0.452084,0.026353,0.003203,0.007112,0.183168,-0.103286,-0.211330,264.446716,265.541260,25.000000,42.369579,-11.739838,-21.644199
461772011.805633,0.150360,-0.255676,-1.018890,0.095115,0.279039,-0.458000,0.089076,-0.001118,-0.056635,-0.325644,-0.364907,-0.006443,262.986755,264.081299,25.000000,42.472923,-12.254639,-22.207882
461772011.839030,0.165298,-0.289948,-0.969940,0.076018,0.264387,-0.456186,0.025769,-0.010685,-0.042952,-0.484646,-0.656360,-0.023054,262.599731,263.694275,25.000000,42.989655,-12.769447,-22.572617
461772011.872386,0.249954,-0.252762,-1.078323,0.064847,0.243709,-0.453815,0.157084,-0.040465,-0.035420,-0.836045,0.020045,0.170043,262.677307,263.771851,25.000000,42.920757,-12.700813,-23.036827
461772011.905619,0.133804,-0.077408,-1.383759,0.076311,0.213727,-0.440251,0.096579,0.096900,-0.368569,-0.877941,0.623943,0.377211,262.434570,263.529114,25.000000,43.299694,-12.666489,-22.937355
461772011.938947,0.120789,-0.100128,-1.180969,0.092893,0.201288,-0.435082,0.018702,0.151287,-0.360352,-0.043506,0.397720,-0.129010,261.890991,262.985535,25.000000,43.644184,-12.323288,-22.539459
461772011.972311,0.125916,-0.126633,-1.016830,0.097614,0.209088,-0.450283,0.027054,0.089586,-0.127159,0.458929,-0.202368,-0.604762,260.846130,261.940674,25.000000,44.505405,-12.357605,-22.439987
461772012.005601,0.128143,-0.192337,-0.712799,0.087864,0.226427,-0.476109,0.034575,0.054651,0.138944,0.632732,-0.607747,-0.756778,263.586761,264.681305,25.000000,44.453857,-10.477905,-23.934452
461772012.038970,0.127945,-0.157272,-0.817200,0.077333,0.238409,-0.498625,0.041232,0.050488,0.250396,0.226222,-0.356941,-0.562299,265.326813,266.421356,25.000000,44.763878,-9.894440,-23.967606
461772012.072528,0.196198,-0.162567,-0.847733,0.072290,0.235548,-0.517418,0.084553,0.076790,0.128111,-0.142020,-0.270828,-0.605012,266.859009,267.953552,25.000000,45.418365,-8.967781,-24.000763
461772012.105599,0.345657,-0.147903,-1.021500,0.076828,0.227541,-0.532945,0.244867,0.059811,0.100486,-0.295932,0.372148,-0.301487,267.717194,268.811737,25.000000,45.693932,-8.487289,-23.934452
461772012.138981,0.134048,-0.063538,-1.172424,0.110981,0.212930,-0.530460,0.197732,0.092810,-0.144640,-0.182386,1.165260,0.296606,268.129608,269.224152,25.000000,46.865112,-8.144096,-22.807098
461772012.171959,0.111542,-0.069717,-1.052856,0.138065,0.213175,-0.520918,-0.018850,0.148927,-0.149780,0.009624,0.530651,0.208015,267.255463,268.350006,25.000000,48.001854,-8.727547,-21.315014
461772012.205600,0.126404,-0.153839,-0.896011,0.136790,0.209104,-0.516737,-0.010590,0.097034,0.017908,-0.270669,-0.321764,0.070403,266.696869,267.791412,25.000000,48.621895,-9.002113,-20.519238
461772012.238992,0.134674,-0.180298,-0.878983,0.122227,0.200254,-0.511962,0.010473,0.031407,0.097888,-0.247873,-0.353318,0.153854,266.432434,267.526978,25.000000,48.863022,-9.311012,-20.950287
461772012.272052,0.126923,-0.150330,-0.947906,0.116787,0.192798,-0.498624,0.040591,0.031831,0.068964,-0.183420,0.070789,0.336785,265.331970,266.426514,25.000000,48.966362,-10.100395,-21.447643
461772012.305600,0.137634,-0.159409,-0.958923,0.112240,0.186805,-0.486404,0.010763,0.028723,0.020106,-0.212714,-0.173193,0.356073,264.456726,265.551270,25.000000,48.544266,-10.553322,-22.728909
461772012.338972,0.130524,-0.130203,-0.958282,0.106788,0.180138,-0.473123,0.044431,0.046383,0.029301,-0.126312,-0.194002,0.446039,263.896973,264.991516,25.000000,48.785378,-10.999504,-22.496811
461772012.372301,0.160828,-0.099457,-0.969894,0.100241,0.174942,-0.458246,0.028774,0.054041,0.030712,-0.102687,-0.152303,0.460443,262.783356,263.877899,25.000000,49.198708,-11.754570,-22.430496
461772012.405655,0.179108,-0.096207,-1.064011,0.099836,0.173560,-0.443510,0.072893,0.071463,-0.037140,-0.042623,0.252261,0.432471,261.729736,262.824280,25.000000,49.749817,-12.578278,-22.098927
461772012.439212,0.218933,-0.207672,-0.928528,0.109279,0.175218,-0.431215,0.051712,0.033072,-0.068930,0.195524,0.198154,0.384806,260.946167,262.040710,25.000000,49.818703,-13.264687,-21.899986
461772012.472371,0.374313,-0.126755,-1.216843,0.123027,0.177823,-0.415176,0.174308,-0.014336,0.066254,-0.430129,0.453060,0.691022,259.368835,260.463379,25.000000,49.577599,-14.465919,-21.071060
461772012.505760,0.287430,-0.068085,-1.329788,0.132141,0.152326,-0.381283,0.202532,0.048817,-0.314538,-1.053344,0.294683,1.061167,259.112854,260.207397,25.000000,49.749825,-15.804443,-20.640015
461772012.539346,0.164230,-0.033142,-1.142960,0.126084,0.131258,-0.345536,0.093898,0.119804,-0.288994,-0.515256,-0.215633,0.872720,257.377380,258.471924,25.000000,49.439827,-16.387909,-20.673176
461772012.572664,0.111176,-0.105087,-0.904984,0.112965,0.135989,-0.316776,0.003688,0.035289,0.017809,0.443278,-0.073819,0.444302,254.724609,255.819153,25.000000,49.026489,-18.103973,-21.137375
461772012.605429,0.141647,-0.099747,-0.828415,0.115828,0.157359,-0.307722,0.027506,0.056963,0.152612,0.671419,0.276528,0.291271,251.660919,252.755463,25.000000,48.556015,-19.793022,-20.908867
461772012.638928,0.263443,-0.133850,-0.845016,0.126667,0.177672,-0.300567,0.110493,0.052822,0.138711,0.529138,0.386645,0.336668,251.105759,252.200302,25.000000,48.866005,-20.307808,-20.676769
461772012.671461,0.310806,-0.098053,-0.842789,0.131149,0.185992,-0.294645,0.157599,0.045075,0.125360,0.436211,0.326478,0.478081,250.469604,251.564148,25.000000,49.244865,-21.509003,-19.781525
461772012.705622,0.291992,-0.095673,-0.850494,0.136651,0.202427,-0.261486,0.158548,0.105374,0.119955,0.087184,0.231859,0.839926,249.911575,251.006119,25.000000,49.313759,-22.469955,-18.587875
461772012.738945,0.266388,-0.094177,-0.931610,0.138869,0.204989,-0.231988,0.143497,0.106572,0.052051,-0.120766,0.217319,0.926324,248.760239,249.854782,25.000000,49.003777,-23.877060,-18.090519
461772012.772000,0.247421,-0.086700,-0.959793,0.138992,0.203720,-0.202747,0.109407,0.143598,0.031384,-0.184782,0.191048,0.782133,246.647491,247.742035,25.000000,48.314911,-25.798958,-17.560009
461772012.805916,0.254501,-0.129471,-0.973160,0.139910,0.202106,-0.191171,0.110806,0.114033,0.010280,-0.201510,0.208743,0.637865,245.210419,246.304962,25.000000,48.379036,-27.076134,-17.972755
461772012.839277,0.240036,-0.173691,-0.948074,0.151274,0.192388,-0.165462,0.088136,0.025814,0.008030,-0.214539,0.174677,0.453873,244.484833,245.579376,25.000000,47.862389,-27.384987,-18.072227
461772012.872103,0.188904,-0.188156,-0.938324,0.158042,0.187237,-0.151277,0.060270,0.003497,0.033861,-0.242126,0.152415,0.396538,242.799896,243.894440,25.000000,47.139084,-28.448853,-17.972755
461772012.905968,0.228378,-0.197311,-0.929459,0.160522,0.182654,-0.140671,0.032812,0.001052,0.023305,-0.110476,0.141053,0.223193,241.229996,242.324539,25.000000,46.071335,-29.169533,-17.740654
461772012.938930,0.272583,-0.207458,-0.917435,0.168496,0.183335,-0.135501,0.085736,-0.017580,0.047625,0.005153,0.222514,0.176901,240.555756,241.650299,25.000000,46.105778,-29.684296,-17.508556
461772012.972328,0.238007,-0.201508,-0.915375,0.173247,0.182993,-0.126774,0.093360,-0.026813,0.065920,-0.135144,0.146579,0.313229,239.647400,240.741943,25.000000,45.933556,-30.267700,-17.541718
461772013.005584,0.205780,-0.186203,-0.900101,0.176139,0.179581,-0.115165,0.046094,-0.015581,0.045706,-0.223220,-0.023463,0.336207,239.255386,240.349930,25.000000,46.726032,-30.610931,-17.509220
461772013.038910,0.218353,-0.195648,-0.867111,0.171544,0.175967,-0.105082,0.037712,-0.011142,0.070006,-0.119847,-0.070979,0.260609,238.280304,239.374847,25.000000,46.278248,-31.331566,-17.807636
461772013.072299,0.188309,-0.186859,-0.939529,0.174357,0.173771,-0.095851,0.042578,-0.016952,0.091344,-0.285872,0.031805,0.287592,237.579163,238.673706,25.000000,45.623806,-31.846291,-17.774475
461772013.105636,0.189178,-0.145218,-1.010132,0.173275,0.164869,-0.085001,-0.001797,-0.008164,-0.003307,-0.353218,-0.041807,0.234129,236.622925,237.717468,25.000000,44.521568,-32.120811,-18.636562
461772013.139000,0.236359,-0.175522,-1.029266,0.172097,0.156988,-0.080895,0.020035,0.011126,-0.037020,-0.159476,-0.025544,0.002420,236.180618,237.275162,25.000000,44.004898,-31.880600,-18.868660
461772013.172824,0.198273,-0.163055,-1.041428,0.168216,0.150868,-0.078955,0.082387,-0.032626,-0.071823,-0.214931,-0.208990,0.073366,235.718552,236.813095,25.000000,43.798233,-32.017868,-19.531807
461772013.205656,0.171829,-0.150467,-0.984421,0.160636,0.147596,-0.075643,0.019970,-0.002842,-0.053560,-0.086181,-0.356899,0.059960,235.299561,236.394104,25.000000,43.247124,-32.086494,-19.664436
461772013.238944,0.216766,-0.152832,-1.004471,0.150328,0.146287,-0.076703,0.023666,-0.004701,-0.006259,-0.013338,-0.259894,-0.094174,234.649643,235.744186,25.000000,43.074898,-32.738495,-20.427055
461772013.272704,0.200623,-0.130737,-1.082306,0.146413,0.141714,-0.076764,0.075985,-0.002315,-0.088488,-0.140152,-0.147743,0.108701,234.569336,235.663879,25.000000,42.868233,-32.669868,-20.692314
461772013.305661,0.171402,-0.114777,-1.010437,0.141144,0.139498,-0.074255,0.019077,0.031090,-0.084900,0.064318,-0.257167,0.016188,234.483017,235.577560,25.000000,42.764893,-32.910072,-20.526527
461772013.339050,0.184479,-0.142685,-0.942810,0.135000,0.143795,-0.078001,0.045708,0.014669,0.007454,0.233481,-0.235377,-0.112021,232.434052,233.528595,25.000000,42.110447,-33.150284,-20.360737
461772013.372256,0.160324,-0.142700,-0.884079,0.133230,0.152055,-0.080248,0.045821,-0.007039,0.088040,0.210069,-0.126349,0.053855,232.192139,233.286682,25.000000,42.144894,-33.596390,-20.659149
461772013.405689,0.138931,-0.112259,-0.901398,0.132262,0.157014,-0.078468,0.005686,0.038129,0.086723,0.194811,0.010003,0.064578,232.157257,233.251801,25.000000,41.834896,-33.630707,-20.758625
461772013.438963,0.157913,-0.133911,-0.915710,0.135145,0.163028,-0.080043,0.020327,0.040343,0.066793,0.166698,0.116192,-0.064798,232.021133,233.115677,25.000000,41.559341,-33.973862,-21.023884
461772013.472418,0.205078,-0.113998,-0.952240,0.139162,0.163510,-0.082235,0.038155,0.019838,0.049572,-0.049960,0.020428,-0.027681,231.589615,232.684158,25.000000,41.214897,-34.385658,-20.625996
461772013.505786,0.181046,-0.109390,-1.035217,0.141903,0.156517,-0.082051,0.042583,0.043895,-0.023404,-0.174487,-0.008230,0.013127,231.583557,232.678101,25.000000,41.111561,-34.282700,-20.659149
461772013.539161,0.172607,-0.119415,-0.998199,0.144015,0.151521,-0.082720,0.034686,0.032869,-0.044274,0.006112,0.006599,-0.042986,232.417114,233.511658,25.000000,41.292542,-33.846046,-20.102299
461772013.572312,0.162750,-0.139633,-0.966095,0.146370,0.151975,-0.085827,0.016554,0.038278,0.005095,0.130334,0.086547,-0.131899,232.864029,233.958572,25.000000,41.189201,-32.988243,-20.201775
461772013.605616,0.201050,-0.172623,-0.939377,0.157923,0.159998,-0.094635,0.045105,-0.019044,0.024305,0.131636,0.151947,-0.067878,233.145370,234.239914,25.000000,41.395874,-32.713753,-20.069141
461772013.638881,0.192596,-0.144821,-0.948578,0.163140,0.160842,-0.094383,0.032275,0.015328,0.025408,0.018621,0.116306,0.052394,233.222504,234.317047,25.000000,41.946999,-33.056870,-19.737564
461772013.672399,0.200516,-0.147415,-0.957809,0.165319,0.161523,-0.093693,0.025884,0.024698,0.019822,0.043446,0.159119,0.047277,232.546066,233.640610,25.000000,41.533653,-33.674492,-19.207035
461772013.705642,0.164230,-0.155640,-0.903961,0.170234,0.160495,-0.088387,0.017549,-0.009398,0.050791,-0.117689,-0.038072,0.209053,232.012817,233.107361,25.000000,41.189201,-34.017609,-18.941769
461772013.739020,0.178543,-0.122772,-0.998856,0.168578,0.155051,-0.080154,-0.020520,0.030941,0.052947,-0.281327,0.049707,0.191068,231.284866,232.379410,25.000000,40.121399,-33.846046,-18.577030
461772013.772400,0.181519,-0.114136,-1.064957,0.172917,0.145530,-0.073536,0.018437,0.024243,-0.062161,-0.255567,0.190567,0.163018,230.920609,232.015152,25.000000,39.535828,-33.674492,-19.008083
461772013.805649,0.102737,-0.111664,-1.024765,0.174789,0.142619,-0.070289,-0.008011,0.032166,-0.101132,-0.193039,0.110488,0.158194,230.818115,231.912659,25.000000,39.398048,-33.605865,-19.405979
461772013.839020,0.057526,-0.131592,-0.937622,0.163369,0.135685,-0.064119,-0.086213,0.013473,0.017014,-0.097826,-0.253946,0.028349,229.896225,230.990768,25.000000,38.674698,-33.708801,-20.500195
461772013.872413,0.049332,-0.124069,-0.929642,0.155294,0.132837,-0.065311,-0.104113,0.008133,0.044097,-0.033528,-0.215732,-0.111843,228.589188,229.683731,25.000000,38.433578,-33.674492,-20.798618
461772013.905685,0.063904,-0.165955,-0.881119,0.147423,0.132769,-0.070260,-0.087720,-0.012732,0.074991,0.024609,-0.105940,-0.180812,228.334961,229.429504,25.000000,37.951347,-33.605865,-21.063881
461772013.938962,0.140121,-0.172104,-0.931427,0.146103,0.129278,-0.074495,-0.053884,-0.034808,0.097698,-0.191159,-0.005191,-0.113923,228.852829,229.947372,25.000000,38.226906,-33.331367,-21.395462
461772013.972362,0.165131,-0.153778,-1.017136,0.148037,0.119759,-0.072330,0.012358,-0.047047,0.009139,-0.494872,0.100648,0.136470,229.432663,230.527206,25.000000,38.054680,-32.748062,-22.091782
461772014.005567,0.097153,-0.056274,-1.184753,0.148639,0.101510,-0.059316,-0.005865,-0.016249,-0.114933,-0.658430,0.020616,0.401984,229.348434,230.442978,25.000000,37.882446,-32.439255,-22.589153
461772014.039012,0.079269,-0.051437,-1.052353,0.145473,0.088466,-0.045210,-0.078903,0.045778,-0.206998,-0.253123,-0.132777,0.290708,228.765762,229.860306,25.000000,37.365768,-32.748062,-22.688629
461772014.072303,0.096710,-0.077179,-0.986237,0.136303,0.085084,-0.039240,-0.046721,0.020284,-0.022899,-0.021649,-0.161768,0.121962,227.434128,228.528671,25.000000,36.711311,-32.988243,-23.119682
461772014.105650,0.090164,-0.098221,-0.928879,0.129840,0.084642,-0.034078,-0.038206,-0.021401,0.032543,-0.068852,-0.136611,0.195774,226.382904,227.477448,25.000000,36.022400,-33.331367,-23.186001
461772014.138969,0.099762,-0.053101,-1.021301,0.126702,0.082986,-0.025367,-0.029920,-0.003581,0.056396,-0.116387,0.054324,0.287452,226.344650,227.439194,25.000000,35.850174,-33.228432,-23.351788
461772014.172312,0.083115,-0.061417,-1.044815,0.129977,0.080641,-0.015388,-0.029428,0.027453,-0.032959,-0.064203,0.122758,0.277409,225.728714,226.823257,25.000000,35.560436,-34.212120,-23.155071
461772014.205692,0.214233,-0.117859,-1.012512,0.131117,0.083213,-0.008502,-0.011942,0.002093,-0.025427,0.150023,0.126242,0.196050,224.942261,226.036804,25.000000,34.940449,-34.349365,-23.685608
461772014.238683,0.261505,-0.044006,-1.197617,0.144042,0.083428,0.012093,0.123724,-0.023281,-0.097050,-0.238239,0.460836,0.689961,224.619263,225.713806,25.000000,34.802673,-34.555237,-23.486656
461772014.271706,0.214874,-0.008926,-1.267502,0.158610,0.079583,0.039540,0.057428,0.070573,-0.283179,-0.211467,0.438282,0.851434,223.994064,225.088608,25.000000,34.182682,-34.761108,-23.287704
461772014.305594,0.154648,-0.006134,-1.127045,0.159625,0.080058,0.065064,0.004281,0.075868,-0.207724,-0.040826,-0.192817,0.713844,222.307220,223.401764,25.000000,33.218254,-35.447327,-23.155067
461772014.338922,0.086884,-0.042267,-0.927429,0.143348,0.082995,0.085012,-0.027742,0.070204,-0.015891,0.016855,-0.542580,0.547007,221.014557,222.109100,25.000000,32.598263,-35.927689,-23.552967
461772014.372086,0.098816,-0.066544,-0.859833,0.127610,0.089335,0.097668,-0.038225,0.037581,0.095702,0.243861,-0.334960,0.325848,218.719681,219.814224,25.000000,31.254951,-36.922714,-24.182976
461772014.406028,0.198227,-0.117722,-0.865051,0.125759,0.099952,0.104374,0.052704,0.001412,0.140212,0.304682,0.177204,0.226047,218.043289,219.137833,25.000000,30.703846,-37.746185,-24.315613
461772014.438918,0.266495,-0.116821,-0.922699,0.136503,0.110304,0.113671,0.115770,-0.036526,0.092694,0.231183,0.445032,0.442422,218.090561,219.185104,25.000000,30.428291,-37.952057,-24.050346
461772014.472999,0.214096,-0.052628,-1.030212,0.149247,0.114965,0.133365,0.112832,0.018734,0.033991,-0.089508,0.381745,0.721208,217.667206,218.761749,25.000000,30.083858,-38.157928,-23.984032
461772014.505595,0.195908,-0.033813,-1.063416,0.155843,0.113597,0.157921,0.047417,0.072078,-0.070274,-0.151448,0.216395,0.729703,215.136703,216.231247,25.000000,28.843876,-38.981407,-24.249294
461772014.538916,0.249893,-0.083038,-0.955322,0.157110,0.115769,0.178856,0.071817,0.062135,-0.054099,0.071784,0.039194,0.602632,212.288132,213.382675,25.000000,27.052795,-39.736259,-24.713512
461772014.572254,0.203400,-0.117081,-0.890625,0.154238,0.122173,0.199302,0.093398,0.030408,0.049794,0.049825,-0.026420,0.704380,211.327454,212.421997,25.000000,26.673908,-40.182312,-24.879303
461772014.605602,0.176727,-0.117630,-0.878433,0.149177,0.127026,0.238171,0.029301,0.009054,0.102493,-0.047097,0.046073,0.863961,209.923065,211.017609,25.000000,25.568537,-41.414970,-24.086632
461772014.639319,0.195984,-0.127869,-0.935043,0.150038,0.129442,0.267022,0.051009,0.006416,0.069376,-0.072203,0.186371,0.914833,208.446213,209.540756,25.000000,24.431950,-41.929649,-23.987152
461772014.672488,0.180420,-0.091568,-0.937088,0.152497,0.133241,0.297148,0.040083,0.029988,0.035909,0.010110,0.195860,0.922688,207.328735,208.423279,25.000000,23.467575,-42.272766,-23.987152
461772014.705687,0.181488,-0.100464,-0.954163,0.155822,0.137631,0.324419,0.027764,0.036733,0.024380,-0.016555,0.214900,0.791751,205.333801,206.428345,25.000000,22.158777,-42.890373,-24.119789
461772014.739019,0.188263,-0.143326,-0.968964,0.156968,0.138800,0.336798,0.037486,0.019778,0.018200,-0.061445,0.159672,0.754138,204.340088,205.434631,25.000000,21.538816,-43.302124,-23.987156
461772014.772311,0.128220,-0.157562,-0.955978,0.158018,0.139906,0.373661,-0.011536,-0.005584,0.000093,-0.091389,0.096957,0.705733,202.128754,203.223297,25.000000,19.782272,-43.954048,-23.821369
461772014.805720,0.128006,-0.154327,-0.968353,0.159816,0.140109,0.394753,-0.026916,-0.017637,0.022123,-0.136831,0.182496,0.600831,200.310349,201.404892,25.000000,18.542358,-44.159920,-24.484531
461772014.839055,0.112869,-0.142868,-0.992538,0.162382,0.138286,0.412654,-0.043763,-0.003634,-0.026268,-0.150944,0.151090,0.457074,198.965088,200.059631,25.000000,17.853519,-44.571663,-24.948750
461772014.872353,0.120544,-0.141113,-0.974442,0.161815,0.136397,0.424942,-0.051322,-0.004208,0.016695,-0.110274,0.106953,0.276042,198.000992,199.095535,25.000000,17.647816,-45.251205,-24.769527
461772014.905973,0.149979,-0.164993,-0.980270,0.163720,0.133822,0.430886,-0.023730,-0.018326,-0.008659,-0.096026,0.136474,0.076994,196.989441,198.083984,25.000000,17.096775,-45.045334,-24.968475
461772014.939099,0.193314,-0.195374,-0.932938,0.167673,0.134616,0.431601,0.015377,-0.054572,0.024480,-0.064962,0.070840,-0.007516,197.035950,198.130493,25.000000,17.268974,-45.079643,-24.802681
461772014.972318,0.246994,-0.196991,-0.964630,0.173202,0.134774,0.430798,0.042040,-0.060518,0.033295,-0.083940,0.128387,-0.050937,196.503891,197.598434,25.000000,16.786812,-44.462006,-25.465843
461772015.005838,0.272339,-0.181183,-1.009613,0.180296,0.132060,0.429984,0.089467,-0.056785,-0.011088,-0.089116,0.272250,-0.004828,196.655731,197.750275,25.000000,17.096771,-44.633560,-25.697952
461772015.039092,0.215500,-0.109161,-1.040237,0.188043,0.129899,0.432756,0.054048,-0.027250,-0.060420,-0.056181,0.210118,0.105845,196.522430,197.616974,25.000000,17.200089,-44.667877,-25.731113
461772015.072247,0.199188,-0.064407,-1.049896,0.193650,0.130338,0.434374,0.021669,0.038158,-0.079719,0.070778,0.159848,-0.004926,196.192154,197.286697,25.000000,17.441170,-45.182571,-25.830585
461772015.105697,0.178955,-0.047363,-0.987640,0.196405,0.136102,0.429823,0.000477,0.080460,-0.055242,0.313829,-0.009045,-0.167309,196.055008,197.149551,25.000000,17.441170,-44.908081,-25.830585
461772015.138960,0.115799,-0.102997,-0.780045,0.194293,0.149614,0.418611,-0.045378,0.086907,0.083459,0.569401,-0.175447,-0.312541,196.337860,197.432404,25.000000,17.923332,-45.045334,-25.366375
461772015.172364,0.076797,-0.140427,-0.797958,0.190149,0.164041,0.404220,-0.081854,0.045082,0.217634,0.423355,-0.171310,-0.350299,197.136047,198.230591,25.000000,18.439934,-44.942390,-24.935318
461772015.206212,0.165115,-0.151505,-0.893097,0.194366,0.170496,0.384067,-0.085608,0.028420,0.120051,-0.000195,0.084354,-0.403665,198.145813,199.240356,25.000000,19.197617,-45.079636,-24.603733
461772015.239145,0.235260,-0.135132,-1.010834,0.198497,0.159573,0.375785,0.006374,0.017006,0.030546,-0.494788,0.144130,-0.205515,199.061768,200.156311,25.000000,19.955303,-45.216888,-25.200581
461772015.272298,0.155212,-0.074936,-1.269485,0.205239,0.139590,0.380975,0.000497,0.032005,-0.255959,-0.663370,0.208214,0.152467,200.469940,201.564484,25.000000,20.850746,-44.462013,-25.863743
461772015.305596,0.092285,-0.049271,-1.076996,0.202311,0.125535,0.384910,-0.105206,0.084373,-0.271253,-0.236558,-0.351351,-0.157123,200.379822,201.474365,25.000000,20.540783,-43.604195,-26.759007
461772015.338971,0.102554,-0.088638,-0.941574,0.184556,0.123318,0.371125,-0.088397,0.047109,-0.020770,0.166479,-0.527404,-0.596377,199.971146,201.065689,25.000000,20.334141,-42.437553,-27.289537
461772015.372595,0.140381,-0.118088,-0.894394,0.176255,0.125753,0.346933,-0.055505,0.007761,0.099338,0.213845,-0.210744,-0.766276,199.822250,200.916794,25.000000,20.127502,-42.437553,-27.753752
461772015.405606,0.170273,-0.097809,-0.983719,0.179084,0.127895,0.320775,-0.025795,0.030211,0.007587,0.221816,0.055310,-0.806687,200.566269,201.660812,25.000000,20.575222,-42.883621,-27.720596
461772015.438987,0.209961,-0.118607,-0.959229,0.181636,0.130319,0.292422,0.010529,0.024741,-0.001094,0.232096,-0.126573,-0.843837,202.165894,203.260437,25.000000,21.505104,-42.712051,-28.151649
461772015.471965,0.200836,-0.108124,-0.934006,0.177991,0.130682,0.269117,0.052759,-0.000335,0.043589,0.037508,-0.255497,-0.568313,203.664154,204.758698,25.000000,22.434990,-41.648354,-28.317442
461772015.505718,0.108932,-0.053299,-0.949615,0.171059,0.128072,0.255919,-0.003778,0.034277,0.044839,-0.025395,-0.245416,-0.348068,205.575623,206.670166,25.000000,23.502636,-40.653275,-28.549549
461772015.539112,0.114624,-0.078323,-0.958679,0.162735,0.122020,0.244569,-0.047013,0.052351,0.029164,-0.107708,-0.299251,-0.384762,206.379166,207.473709,25.000000,23.709274,-40.035637,-28.748495
461772015.572604,0.110077,-0.051300,-0.984497,0.150474,0.112929,0.234297,-0.042933,0.038714,0.004070,-0.210828,-0.404088,-0.339364,207.873764,208.968307,25.000000,24.570278,-39.589577,-29.643763
461772015.605614,0.154541,-0.061768,-1.009872,0.133442,0.101002,0.216566,0.007509,0.046264,-0.017023,-0.185064,-0.365488,-0.440813,208.907074,210.001617,25.000000,24.742477,-38.731750,-30.605347
461772015.639029,0.170639,-0.061462,-1.018402,0.123569,0.093939,0.203197,0.047928,0.032338,-0.030402,-0.136465,-0.333739,-0.429778,209.490112,210.584656,25.000000,25.052437,-38.697449,-31.301664
461772015.672376,0.169327,-0.060883,-0.977158,0.116911,0.087783,0.189163,0.055053,0.029229,-0.003189,-0.066797,-0.297352,-0.452791,210.218216,211.312759,25.000000,24.742477,-37.702370,-31.997984
461772015.705699,0.174133,-0.080093,-0.951950,0.113263,0.086110,0.181776,0.054711,0.019246,0.022794,-0.043269,-0.247223,-0.467751,211.024017,212.118561,25.000000,24.811363,-37.359238,-31.931667
461772015.739367,0.152985,-0.087936,-0.954071,0.110602,0.080489,0.161507,0.042965,-0.007534,0.036601,-0.099401,-0.101584,-0.365930,211.007843,212.102386,25.000000,24.398079,-37.016106,-31.865351
461772015.772461,0.099976,-0.071136,-0.972565,0.110368,0.074965,0.150810,0.003523,0.004261,0.022817,-0.146768,-0.085302,-0.346935,211.171280,212.265823,25.000000,24.811363,-36.398476,-32.263248
461772015.805738,0.100021,-0.088699,-0.951248,0.109561,0.070474,0.139578,-0.029175,-0.000721,0.023229,-0.053581,0.028276,-0.370534,212.407623,213.502167,25.000000,24.639160,-35.540657,-33.158516
461772015.839191,0.104156,-0.088882,-0.951920,0.111175,0.069030,0.133955,-0.010661,-0.019724,0.040211,-0.057395,0.100863,-0.340786,212.910461,214.005005,25.000000,24.845802,-35.060272,-33.490097
461772015.872096,0.094147,-0.065552,-1.040497,0.119268,0.060981,0.122575,-0.030980,-0.004517,-0.032997,-0.234339,0.183211,-0.239254,213.912521,215.007065,25.000000,25.155762,-34.065193,-33.589573
461772015.904949,0.115311,-0.044861,-1.080032,0.122827,0.052197,0.116394,-0.018836,0.003330,-0.075215,-0.227718,0.061852,-0.208713,214.181824,215.276367,25.000000,25.155762,-33.378937,-33.722206
461772015.939400,0.116135,-0.036743,-1.082108,0.125087,0.046467,0.111141,-0.006096,0.002490,-0.093052,-0.066874,0.128827,-0.170330,214.216553,215.311096,25.000000,25.500164,-33.104431,-33.987473
461772015.971926,0.118942,-0.026688,-1.065598,0.129457,0.044577,0.105146,-0.007507,0.017798,-0.089996,0.030233,0.142893,-0.209989,214.155670,215.250214,25.000000,24.742481,-32.898560,-34.053787
461772016.005814,0.157120,-0.041550,-0.986374,0.132915,0.046773,0.096606,0.008215,0.022037,-0.034227,0.187238,0.105004,-0.275513,213.375549,214.470093,25.000000,24.708038,-33.070114,-34.086945
461772016.038947,0.146271,-0.032486,-0.968140,0.138755,0.051169,0.087977,0.029610,0.001693,0.008120,0.138780,0.131407,-0.201725,213.019913,214.114456,25.000000,24.398079,-33.035805,-33.788521
461772016.072241,0.113770,-0.024277,-0.963669,0.143275,0.053928,0.083178,0.003693,0.021415,0.020175,0.099120,0.143090,-0.117962,211.783127,212.877670,25.000000,24.501396,-33.344620,-34.020626
461772016.105587,0.117432,-0.052811,-0.943130,0.147946,0.054847,0.078011,-0.040969,0.023127,0.040399,0.077711,0.146545,-0.176722,211.491882,212.586426,25.000000,24.294754,-33.344620,-33.954311
461772016.139249,0.080414,-0.060318,-0.965378,0.151224,0.053859,0.072305,-0.030602,-0.015884,0.047625,-0.019432,0.113940,-0.158839,210.888870,211.983414,25.000000,23.881474,-33.550499,-33.887993
461772016.172165,0.061859,-0.047134,-1.001175,0.154203,0.052795,0.068751,-0.072965,-0.007547,0.021380,-0.021978,0.187772,-0.122992,209.892609,210.987152,25.000000,23.399319,-34.030884,-33.954308
461772016.205876,0.119370,-0.104370,-0.998428,0.160228,0.054752,0.057172,-0.051562,-0.027367,-0.013724,0.061233,0.127659,-0.270599,208.957138,210.051682,25.000000,23.020477,-34.682838,-33.921150
461772016.238968,0.051605,-0.084366,-1.061432,0.159375,0.054636,0.051738,-0.068880,-0.047747,-0.043917,-0.065128,-0.033017,-0.132099,208.395676,209.490219,25.000000,22.848274,-35.128914,-33.887989
461772016.272263,0.053680,-0.063019,-1.071045,0.154642,0.056128,0.045853,-0.100104,-0.006920,-0.084534,0.171335,0.008188,-0.251483,207.159119,208.253662,25.000000,22.056149,-36.123993,-33.390621
461772016.305583,0.099869,-0.080948,-1.108093,0.153586,0.062575,0.034505,-0.056980,-0.013058,-0.116885,0.290833,-0.027239,-0.345378,204.965958,206.060501,25.000000,21.022945,-38.045517,-32.594826
461772016.339147,0.108826,-0.079727,-0.991486,0.150081,0.073352,0.021500,-0.035820,-0.002229,-0.073882,0.434666,-0.199688,-0.342560,204.154404,205.248947,25.000000,21.091827,-40.516045,-31.600090
461772016.371305,0.113846,-0.070831,-0.965134,0.141966,0.084707,0.008603,-0.030768,0.006679,0.012544,0.372364,-0.236379,-0.362155,201.742035,202.836578,25.000000,21.022945,-42.163063,-31.135876
461772016.405703,0.108841,-0.093765,-0.952942,0.136420,0.094655,-0.005585,-0.021085,0.004548,0.027809,0.398196,-0.155777,-0.412781,201.194839,202.289383,25.000000,21.711750,-45.868866,-30.340080
461772016.439008,0.138901,-0.123535,-0.934189,0.134096,0.105672,-0.022168,-0.016448,0.002967,0.054617,0.382864,-0.113199,-0.493844,203.277084,204.371628,25.000000,22.648739,-48.952209,-28.548403
461772016.472645,0.146652,-0.126282,-0.944107,0.131664,0.113419,-0.038907,0.015495,-0.018126,0.042150,0.280808,-0.144420,-0.452832,204.013138,205.107681,25.000000,23.888529,-50.599068,-27.421127
461772016.505724,0.155380,-0.127304,-0.962219,0.130191,0.120361,-0.054246,0.017402,-0.006745,0.035481,0.247059,-0.082794,-0.432963,205.956757,207.051300,25.000000,26.815815,-53.584000,-25.133430
461772016.539174,0.225388,-0.105209,-1.014267,0.132362,0.125122,-0.068523,0.048102,0.000574,0.025938,0.129777,0.016218,-0.378725,206.205841,207.300385,25.000000,30.604065,-56.260151,-23.608295
461772016.571937,0.243439,-0.075882,-1.117645,0.139665,0.120095,-0.077445,0.101217,0.027567,-0.080881,-0.232799,0.141653,-0.186322,206.436111,207.530655,25.000000,32.429314,-57.392365,-22.978352
461772016.605685,0.155380,-0.006531,-1.232513,0.143152,0.107562,-0.079600,0.013541,0.100824,-0.248462,-0.079935,-0.079616,-0.126828,210.875427,211.969971,25.000000,35.754894,-57.785526,-22.248070
461772016.639061,0.138718,-0.010162,-1.029327,0.137023,0.111719,-0.089536,-0.006928,0.108053,-0.098755,0.316254,-0.293988,-0.399830,213.239716,214.334259,25.000000,39.612030,-57.648319,-21.584999
461772016.672122,0.148911,-0.048584,-0.880371,0.129869,0.120011,-0.107116,0.030317,0.097338,0.047252,0.431759,-0.290353,-0.538068,214.409714,215.504257,25.000000,41.230648,-57.133801,-21.154007
461772016.704705,0.148193,-0.062424,-0.839386,0.123510,0.130896,-0.128939,0.023777,0.077254,0.122961,0.423724,-0.269062,-0.690845,216.804916,217.899460,25.000000,44.399010,-56.241959,-20.358322
461772016.739065,0.238190,-0.133011,-0.790726,0.120752,0.140355,-0.154994,0.098270,0.019624,0.192521,0.318384,-0.129099,-0.767466,219.158569,220.253113,25.000000,46.424564,-54.241520,-19.552582
461772016.772589,0.221863,-0.137100,-0.882401,0.120961,0.140825,-0.177185,0.122701,-0.012869,0.143160,-0.046529,-0.093354,-0.592487,222.021469,223.116013,25.000000,48.421822,-51.634911,-19.221062
461772016.805682,0.175735,-0.122116,-0.921051,0.121796,0.134652,-0.194477,0.083035,0.011824,0.081782,-0.147422,-0.086523,-0.550625,223.403168,224.497711,25.000000,49.420452,-50.434509,-18.988998
461772016.839113,0.137238,-0.141586,-0.944000,0.122240,0.131550,-0.203763,0.038068,0.003074,0.047408,-0.100354,-0.026903,-0.605761,225.650970,226.745514,25.000000,51.142220,-48.376671,-19.320522
461772016.872433,0.143036,-0.148438,-0.958786,0.126403,0.125726,-0.236127,0.015187,-0.033571,0.055175,-0.081906,-0.028651,-0.686124,227.728104,228.822647,25.000000,52.622944,-46.010155,-19.618885
461772016.905955,0.132904,-0.138962,-1.024109,0.128810,0.118582,-0.256983,0.011807,-0.022625,-0.002798,-0.182909,0.017415,-0.649533,228.734497,229.829041,25.000000,53.242775,-44.844048,-20.083012
461772016.939036,0.121521,-0.117645,-1.059402,0.130327,0.111019,-0.277326,-0.004998,-0.017932,-0.080579,-0.111621,-0.093458,-0.667404,230.520813,231.615356,25.000000,53.793739,-42.374634,-19.950405
461772016.972467,0.160858,-0.110397,-1.035049,0.127627,0.107025,-0.300420,0.010105,-0.002509,-0.036391,-0.006998,-0.155759,-0.752605,231.862473,232.957016,25.000000,54.138092,-40.453979,-19.950405
461772017.005698,0.132965,-0.084595,-1.050598,0.126763,0.103027,-0.323943,0.025934,-0.000824,-0.060525,-0.035716,-0.079298,-0.708445,232.617905,233.712448,25.000000,54.379139,-39.390762,-19.917248
461772017.039031,0.119720,-0.072449,-0.997086,0.125664,0.099847,-0.348409,-0.016448,0.048610,-0.042520,0.032585,-0.144158,-0.842700,232.941849,234.036392,25.000000,55.481071,-37.332916,-20.182468
461772017.072404,0.118561,-0.123901,-0.996384,0.123523,0.097265,-0.379132,0.002389,0.001820,-0.003704,0.034620,-0.153558,-0.988995,233.661041,234.755585,25.000000,56.583012,-34.451935,-20.182468
461772017.105600,0.100800,-0.121460,-0.986633,0.122677,0.096121,-0.410391,-0.020242,-0.028066,-0.005963,0.129411,-0.110852,-0.955754,237.098480,238.193024,25.000000,57.133984,-33.354416,-20.049858
461772017.138998,0.132462,-0.156525,-0.997299,0.121258,0.098601,-0.443040,-0.001355,-0.038720,-0.003055,0.215333,-0.136105,-1.013407,239.961761,241.056305,25.000000,57.753826,-31.365173,-20.381378
461772017.172411,0.136353,-0.149033,-0.963318,0.118444,0.103431,-0.475165,0.020450,-0.058542,-0.009353,0.308168,-0.230479,-0.914154,241.203873,242.298416,25.000000,58.132610,-30.164764,-20.746052
461772017.205690,0.147522,-0.160736,-0.976852,0.112990,0.111197,-0.504104,0.024300,-0.038065,0.024169,0.354669,-0.271984,-0.835303,243.006744,244.101288,25.000000,57.925991,-28.106926,-21.077568
461772017.239041,0.124496,-0.133163,-1.003845,0.106912,0.130223,-0.544784,0.012985,-0.001965,-0.022078,0.621426,-0.156358,-0.790495,243.777679,244.872223,25.000000,57.788242,-27.420975,-20.679749
461772017.272434,0.122589,-0.180923,-0.943344,0.105255,0.147133,-0.573029,0.032519,-0.003956,0.001910,0.540556,-0.255468,-0.803546,244.140854,245.235397,25.000000,57.788242,-25.843307,-20.679749
461772017.305785,0.129593,-0.201401,-0.873230,0.097116,0.156241,-0.600479,0.011975,-0.041889,0.089167,0.214226,-0.440567,-0.810295,246.796143,247.890686,25.000000,58.029285,-24.437119,-20.580296
461772017.339039,0.209488,-0.166214,-0.937836,0.088099,0.150733,-0.622763,0.082507,-0.039107,0.103006,-0.366375,-0.307635,-0.546430,248.197433,249.291977,25.000000,58.132587,-23.854065,-21.143871
461772017.372443,0.098785,-0.014160,-1.357193,0.088304,0.129735,-0.629816,0.118241,0.041954,-0.145553,-0.685154,0.109734,-0.111340,247.901855,248.996399,25.000000,56.571308,-26.080894,-20.833988
461772017.405597,0.010056,0.000793,-1.082748,0.094013,0.123333,-0.635492,-0.044669,0.129628,-0.411194,0.321891,-0.001840,-0.380699,247.883179,248.977722,25.000000,55.848499,-25.497772,-21.596401
461772017.439151,0.057816,-0.022400,-0.836075,0.084044,0.147891,-0.661893,-0.050283,0.136565,0.037885,1.016195,-0.619129,-0.925575,247.904602,248.999146,25.000000,55.401066,-24.914658,-21.695847
461772017.472236,0.083267,-0.116226,-0.760147,0.071278,0.175152,-0.695876,-0.000869,0.080004,0.252173,0.797445,-0.431705,-0.944974,248.609207,249.703751,25.000000,55.125706,-23.885643,-21.961033
461772017.505104,0.143112,-0.125961,-0.857819,0.072016,0.194645,-0.725167,0.034843,0.079069,0.192151,0.579952,0.016929,-0.774202,250.166168,251.260712,25.000000,54.712673,-23.336823,-22.159924
461772017.538089,0.211380,-0.116776,-0.928818,0.079207,0.205550,-0.747421,0.065654,0.078144,0.118061,0.227470,0.131404,-0.554771,250.737137,251.831680,25.000000,54.506157,-23.474022,-22.027328
461772017.571935,0.167252,-0.051880,-1.231384,0.091293,0.198238,-0.758242,0.147115,0.094205,-0.106447,-0.173351,0.398192,-0.129826,251.753586,252.848129,25.000000,54.058708,-23.302521,-22.126778
461772017.605862,0.026947,0.011185,-1.106857,0.102509,0.194277,-0.756809,0.017027,0.170413,-0.280311,-0.013975,0.205693,0.034354,251.883102,252.977646,25.000000,53.576839,-23.371117,-21.530106
461772017.638966,0.033386,-0.020584,-0.941711,0.094285,0.200439,-0.774162,-0.058875,0.178515,0.033915,0.291001,-0.444672,-0.599792,251.857605,252.952148,25.000000,53.335907,-23.131012,-21.364365
461772017.672039,0.054276,-0.125565,-0.860458,0.088932,0.207760,-0.796960,-0.029150,0.098389,0.104801,0.302570,-0.196122,-0.696123,252.335175,253.429718,25.000000,53.033073,-22.241417,-21.598442
461772017.705752,0.054459,-0.167969,-0.826645,0.090461,0.215857,-0.821735,-0.040344,0.078122,0.131704,0.315807,-0.083635,-0.761804,252.820068,253.914612,25.000000,52.103752,-21.521103,-21.432701
461772017.739372,0.087723,-0.201233,-0.827621,0.092007,0.219325,-0.835171,-0.035217,0.049602,0.145271,0.273276,-0.088586,-0.804780,253.489410,254.583954,25.000000,52.069336,-21.006599,-21.598442
461772017.772258,0.116425,-0.249023,-0.844467,0.095609,0.225022,-0.873299,0.030951,-0.024874,0.130799,0.106780,-0.080635,-0.610927,254.021469,255.116013,25.000000,51.415363,-20.972305,-20.968628
461772017.805599,0.080322,-0.219055,-0.910248,0.096409,0.225036,-0.881943,0.015512,-0.024387,0.126128,0.018629,-0.059864,-0.476384,255.235947,256.330505,25.000000,51.209038,-19.960518,-21.377056
461772017.838932,0.061447,-0.203278,-0.955048,0.098601,0.219156,-0.898773,-0.021883,0.007506,0.035839,-0.127955,-0.069323,-0.307825,255.598816,256.693359,25.000000,50.692745,-19.789017,-21.476501
461772017.872154,0.070465,-0.210327,-0.974869,0.095675,0.214429,-0.909360,-0.038944,0.012381,-0.002758,-0.072067,-0.078579,-0.381729,255.851532,256.946075,25.000000,50.038788,-19.617516,-21.774830
461772017.905593,0.059769,-0.242096,-1.044922,0.093898,0.209768,-0.920821,-0.012985,-0.021488,-0.040985,-0.201619,-0.092534,-0.345978,255.424255,256.518799,25.000000,49.488083,-20.097710,-21.973721
461772017.939652,0.041077,-0.240082,-1.063782,0.090269,0.200203,-0.930740,-0.037702,-0.040405,-0.078468,-0.299754,-0.245450,-0.337884,255.165283,256.259827,25.000000,49.201988,-20.229927,-23.146908
461772017.972349,0.017349,-0.229797,-1.085785,0.081458,0.190975,-0.942222,-0.044366,-0.056049,-0.087476,-0.232539,-0.294025,-0.411308,254.901917,255.996460,25.000000,48.995483,-20.572922,-23.677269
461772018.005694,0.049179,-0.223068,-1.102448,0.077730,0.187287,-0.958163,-0.057388,-0.043176,-0.130424,0.053210,-0.070440,-0.580936,254.550446,255.644989,25.000000,48.995483,-20.915924,-24.539104
461772018.038919,0.070587,-0.280624,-1.108719,0.081639,0.190683,-0.981288,-0.000618,-0.049927,-0.122439,0.158609,-0.032505,-0.737892,254.697784,255.792328,25.000000,49.236408,-20.744423,-24.638546
461772018.072460,0.082733,-0.250610,-1.095047,0.079572,0.190569,-1.004915,-0.007462,-0.091207,-0.129929,0.024674,-0.309084,-0.706878,254.966858,256.061401,25.000000,49.374077,-20.675819,-24.704842
461772018.105678,0.219193,-0.206558,-1.089798,0.076226,0.192577,-1.029228,0.021996,-0.056795,-0.075550,0.116444,-0.130482,-0.736017,255.786316,256.880859,25.000000,49.993603,-20.401421,-24.903725
461772018.138036,0.189194,-0.044662,-1.369339,0.085630,0.186541,-1.048311,0.156879,0.003255,-0.190535,-0.292852,0.388441,-0.438088,256.261475,257.356018,25.000000,49.993603,-20.332825,-24.704838
461772018.172058,0.085480,0.007919,-1.256363,0.101623,0.181172,-1.056687,0.089406,0.135520,-0.390781,0.124456,0.349643,-0.230767,256.354614,257.449158,25.000000,49.821507,-20.161324,-24.539101
461772018.206074,0.045517,-0.007767,-0.801407,0.103334,0.199145,-1.072193,-0.045249,0.208787,-0.171233,0.881904,-0.318362,-0.572130,256.318604,257.413147,25.000000,49.374073,-19.989815,-24.108189
461772018.238764,0.102631,-0.081512,-0.730759,0.089585,0.239243,-1.113888,-0.009952,0.182600,0.270646,0.705456,-0.382639,-0.802204,252.878311,253.972855,25.000000,49.477325,-20.092712,-23.743565
461772018.272349,0.140839,-0.074310,-0.835999,0.092078,0.254338,-1.139454,0.035766,0.174212,0.184342,0.474093,0.084285,-0.664661,252.902740,253.997284,25.000000,49.614994,-20.229919,-23.478382
461772018.305646,0.169525,-0.063828,-0.921539,0.105946,0.268384,-1.161014,0.061063,0.210730,0.027337,0.508746,0.320241,-0.576464,254.069412,255.163956,25.000000,49.546158,-20.229919,-22.815434
461772018.339073,0.109116,-0.093842,-0.952347,0.118725,0.274105,-1.179693,0.049671,0.186258,0.026661,0.171556,0.141992,-0.463804,255.401917,256.496460,25.000000,49.752666,-19.612518,-22.218777
461772018.371439,0.037506,-0.083389,-0.963745,0.118085,0.262114,-1.192901,-0.042147,0.166807,-0.002063,-0.110702,-0.195285,-0.438203,256.051147,257.145691,25.000000,49.959179,-19.269524,-22.019897
461772018.405640,-0.024261,-0.102325,-0.871002,0.113038,0.257173,-1.212528,-0.123569,0.169997,0.027728,-0.061354,-0.386239,-0.748218,257.014740,258.109283,25.000000,50.131271,-18.686417,-22.185631
